stim,pos,size,trials.thisRepN,trials.thisTrialN,trials.thisN,trials.thisIndex,trials_2.thisRepN,trials_2.thisTrialN,trials_2.thisN,trials_2.thisIndex,trials_3.thisRepN,trials_3.thisTrialN,trials_3.thisN,trials_3.thisIndex,trials_4.thisRepN,trials_4.thisTrialN,trials_4.thisN,trials_4.thisIndex,trials_5.thisRepN,trials_5.thisTrialN,trials_5.thisN,trials_5.thisIndex,trials_6.thisRepN,trials_6.thisTrialN,trials_6.thisN,trials_6.thisIndex,trials_7.thisRepN,trials_7.thisTrialN,trials_7.thisN,trials_7.thisIndex,trials_8.thisRepN,trials_8.thisTrialN,trials_8.thisN,trials_8.thisIndex,text.started,text.stopped,kbRight.started,kbRight.stopped,key_resp.keys,key_resp.rt,key_resp.started,key_resp.stopped,fix.started,fix.stopped,image.started,image.stopped,key_resp_2.keys,key_resp_2.rt,key_resp_2.started,key_resp_2.stopped,rest_image.started,rest_image.stopped,key_resp_3.keys,key_resp_3.rt,key_resp_3.started,key_resp_3.stopped,kbLeft.started,kbLeft.stopped,key_resp_4.keys,key_resp_4.rt,key_resp_4.started,key_resp_4.stopped,image_2.started,image_2.stopped,key_resp_5.keys,key_resp_5.rt,key_resp_5.started,key_resp_5.stopped,text_2.started,text_2.stopped,sbj,hndns,eye,sex,age,edu,session,date,expName,psychopyVersion,frameRate,
,,,,,,,,,,,,,,,,,,,,,,,,,,,,,,,,,,,35.14396030001808,None,37.15723699994851,None,space,27.02113280002959,37.15723699994851,None,,,,,,,,,,,,,,,,,,,,,,,,,,,,,810199275,r,l,m,25,3,001,2022-03-07_23h19.49.602,HW1,2022.1.1,59.974870533394146,
80.bmp,"(2, 6.92)","(7, 7)",0,0,0,106,,,,,,,,,,,,,,,,,,,,,,,,,,,,,,,,,,,,,64.22614139993675,None,64.71646399993915,64.76661079993937,o,0.7065791999921203,64.71646399993915,None,,,,,,,,,,,,,,,,,,,,,810199275,r,l,m,25,3,001,2022-03-07_23h19.49.602,HW1,2022.1.1,59.974870533394146,
20.bmp,"(-6.06, -3.5)","(10.5, 10.5)",0,1,1,36,,,,,,,,,,,,,,,,,,,,,,,,,,,,,,,,,,,,,65.44913149997592,None,65.94832920003682,65.99887060001493,p,0.4967412000987679,65.94832920003682,None,,,,,,,,,,,,,,,,,,,,,810199275,r,l,m,25,3,001,2022-03-07_23h19.49.602,HW1,2022.1.1,59.974870533394146,
60.bmp,"(4, 0)","(7, 7)",0,2,2,79,,,,,,,,,,,,,,,,,,,,,,,,,,,,,,,,,,,,,66.46534330002032,None,66.96462510002311,67.0144196000183,o,0.6612756999675184,66.96462510002311,None,,,,,,,,,,,,,,,,,,,,,810199275,r,l,m,25,3,001,2022-03-07_23h19.49.602,HW1,2022.1.1,59.974870533394146,
80.bmp,"(0, 0)","(4.375, 4.375)",0,3,3,104,,,,,,,,,,,,,,,,,,,,,,,,,,,,,,,,,,,,,67.64729709993117,None,68.14648450003006,68.19652799994219,o,0.5383141000056639,68.14648450003006,None,,,,,,,,,,,,,,,,,,,,,810199275,r,l,m,25,3,001,2022-03-07_23h19.49.602,HW1,2022.1.1,59.974870533394146,
10.bmp,"(-2, -6.92)","(7, 7)",0,4,4,18,,,,,,,,,,,,,,,,,,,,,,,,,,,,,,,,,,,,,68.71330589998979,None,69.21244549995754,69.26252560003195,o,0.45785879995673895,69.21244549995754,None,,,,,,,,,,,,,,,,,,,,,810199275,r,l,m,25,3,001,2022-03-07_23h19.49.602,HW1,2022.1.1,59.974870533394146,
20.bmp,"(-6.06, 3.5)","(10.5, 10.5)",0,5,5,35,,,,,,,,,,,,,,,,,,,,,,,,,,,,,,,,,,,,,69.69571679993533,None,70.19533280003816,70.24503059999552,p,0.6469824000960216,70.19533280003816,None,,,,,,,,,,,,,,,,,,,,,810199275,r,l,m,25,3,001,2022-03-07_23h19.49.602,HW1,2022.1.1,59.974870533394146,
30.bmp,"(2, 6.92)","(7, 7)",0,6,6,41,,,,,,,,,,,,,,,,,,,,,,,,,,,,,,,,,,,,,70.86122329998761,None,71.36085399996955,71.41061210003681,p,0.4793882999802008,71.36085399996955,None,,,,,,,,,,,,,,,,,,,,,810199275,r,l,m,25,3,001,2022-03-07_23h19.49.602,HW1,2022.1.1,59.974870533394146,
40.bmp,"(0, 0)","(4.375, 4.375)",0,7,7,52,,,,,,,,,,,,,,,,,,,,,,,,,,,,,,,,,,,,,71.86009520001244,None,72.3596895999508,72.40978280000854,o,0.39685350004583597,72.3596895999508,None,,,,,,,,,,,,,,,,,,,,,810199275,r,l,m,25,3,001,2022-03-07_23h19.49.602,HW1,2022.1.1,59.974870533394146,
0.bmp,"(2, 6.92)","(7, 7)",0,8,8,2,,,,,,,,,,,,,,,,,,,,,,,,,,,,,,,,,,,,,72.77625250001438,None,73.27598030003719,73.32571390003432,p,0.45296819997020066,73.27598030003719,None,,,,,,,,,,,,,,,,,,,,,810199275,r,l,m,25,3,001,2022-03-07_23h19.49.602,HW1,2022.1.1,59.974870533394146,
10.bmp,"(2, 6.92)","(7, 7)",0,9,9,15,,,,,,,,,,,,,,,,,,,,,,,,,,,,,,,,,,,,,73.75869639997836,None,74.25842780002858,74.30832930002362,p,0.5882702999515459,74.25842780002858,None,,,,,,,,,,,,,,,,,,,,,810199275,r,l,m,25,3,001,2022-03-07_23h19.49.602,HW1,2022.1.1,59.974870533394146,
60.bmp,"(-2, 6.92)","(7, 7)",0,10,10,81,,,,,,,,,,,,,,,,,,,,,,,,,,,,,,,,,,,,,74.87403239996638,None,75.37405610003043,75.42370819998905,p,1.0224906000075862,75.37405610003043,None,,,,,,,,,,,,,,,,,,,,,810199275,r,l,m,25,3,001,2022-03-07_23h19.49.602,HW1,2022.1.1,59.974870533394146,
30.bmp,"(2, -6.92)","(7, 7)",0,11,11,45,,,,,,,,,,,,,,,,,,,,,,,,,,,,,,,,,,,,,76.4229685999453,None,76.92292429995723,76.97261019994039,o,0.5633819000795484,76.92292429995723,None,,,,,,,,,,,,,,,,,,,,,810199275,r,l,m,25,3,001,2022-03-07_23h19.49.602,HW1,2022.1.1,59.974870533394146,
40.bmp,"(6.06, -3.5)","(10.5, 10.5)",0,12,12,64,,,,,,,,,,,,,,,,,,,,,,,,,,,,,,,,,,,,,77.50546959997155,None,78.00503190001473,78.05474499997217,o,0.4885588000761345,78.00503190001473,None,,,,,,,,,,,,,,,,,,,,,810199275,r,l,m,25,3,001,2022-03-07_23h19.49.602,HW1,2022.1.1,59.974870533394146,
70.bmp,"(2, -6.92)","(7, 7)",0,13,13,97,,,,,,,,,,,,,,,,,,,,,,,,,,,,,,,,,,,,,78.52145919995382,None,79.02075719996355,79.07041809998918,o,0.5181671999162063,79.02075719996355,None,,,,,,,,,,,,,,,,,,,,,810199275,r,l,m,25,3,001,2022-03-07_23h19.49.602,HW1,2022.1.1,59.974870533394146,
60.bmp,"(6.06, -3.5)","(10.5, 10.5)",0,14,14,90,,,,,,,,,,,,,,,,,,,,,,,,,,,,,,,,,,,,,79.57006990001537,None,80.06985530001111,80.1199493999593,p,0.45566130010411143,80.06985530001111,None,,,,,,,,,,,,,,,,,,,,,810199275,r,l,m,25,3,001,2022-03-07_23h19.49.602,HW1,2022.1.1,59.974870533394146,
80.bmp,"(0, 7)","(10.5, 10.5)",0,15,15,112,,,,,,,,,,,,,,,,,,,,,,,,,,,,,,,,,,,,,80.55261989997234,None,81.05232909996994,81.1024449999677,p,0.45978729997295886,81.05232909996994,None,,,,,,,,,,,,,,,,,,,,,810199275,r,l,m,25,3,001,2022-03-07_23h19.49.602,HW1,2022.1.1,59.974870533394146,
0.bmp,"(4, 0)","(7, 7)",0,16,16,1,,,,,,,,,,,,,,,,,,,,,,,,,,,,,,,,,,,,,81.53488619998097,None,82.03484750003554,82.08469339995645,o,0.3779753000708297,82.03484750003554,None,,,,,,,,,,,,,,,,,,,,,810199275,r,l,m,25,3,001,2022-03-07_23h19.49.602,HW1,2022.1.1,59.974870533394146,
0.bmp,"(6.06, -3.5)","(10.5, 10.5)",0,17,17,12,,,,,,,,,,,,,,,,,,,,,,,,,,,,,,,,,,,,,82.43473159999121,None,82.93407650000881,82.98401539993938,o,0.6622960000531748,82.93407650000881,None,,,,,,,,,,,,,,,,,,,,,810199275,r,l,m,25,3,001,2022-03-07_23h19.49.602,HW1,2022.1.1,59.974870533394146,
10.bmp,"(0, 0)","(4.375, 4.375)",0,18,18,13,,,,,,,,,,,,,,,,,,,,,,,,,,,,,,,,,,,,,83.61661199992523,None,84.11647260002792,84.16604129993357,o,0.4860896000172943,84.11647260002792,None,,,,,,,,,,,,,,,,,,,,,810199275,r,l,m,25,3,001,2022-03-07_23h19.49.602,HW1,2022.1.1,59.974870533394146,
60.bmp,"(-2, -6.92)","(7, 7)",0,19,19,83,,,,,,,,,,,,,,,,,,,,,,,,,,,,,,,,,,,,,84.63248239993118,None,85.13201079994906,85.18195979995653,p,0.49154950003139675,85.13201079994906,None,,,,,,,,,,,,,,,,,,,,,810199275,r,l,m,25,3,001,2022-03-07_23h19.49.602,HW1,2022.1.1,59.974870533394146,
70.bmp,"(2, 6.92)","(7, 7)",0,20,20,93,,,,,,,,,,,,,,,,,,,,,,,,,,,,,,,,,,,,,85.64860900002532,None,86.16407119994983,86.2143606999889,p,0.34037290001288056,86.16407119994983,None,,,,,,,,,,,,,,,,,,,,,810199275,r,l,m,25,3,001,2022-03-07_23h19.49.602,HW1,2022.1.1,59.974870533394146,
10.bmp,"(-6.06, 3.5)","(10.5, 10.5)",0,21,21,22,,,,,,,,,,,,,,,,,,,,,,,,,,,,,,,,,,,,,86.53094229998533,None,87.03026589995716,87.0805551999947,p,0.5609804000705481,87.03026589995716,None,,,,,,,,,,,,,,,,,,,,,810199275,r,l,m,25,3,001,2022-03-07_23h19.49.602,HW1,2022.1.1,59.974870533394146,
10.bmp,"(2, -6.92)","(7, 7)",0,22,22,19,,,,,,,,,,,,,,,,,,,,,,,,,,,,,,,,,,,,,87.61328429996502,None,88.11275640001986,88.16279840003699,p,0.5462961999000981,88.11275640001986,None,,,,,,,,,,,,,,,,,,,,,810199275,r,l,m,25,3,001,2022-03-07_23h19.49.602,HW1,2022.1.1,59.974870533394146,
10.bmp,"(-4, 0)","(7, 7)",0,23,23,17,,,,,,,,,,,,,,,,,,,,,,,,,,,,,,,,,,,,,88.67883410002105,None,89.17828610003926,89.22846849996131,p,0.5757271000184119,89.17828610003926,None,,,,,,,,,,,,,,,,,,,,,810199275,r,l,m,25,3,001,2022-03-07_23h19.49.602,HW1,2022.1.1,59.974870533394146,
0.bmp,"(-6.06, -3.5)","(10.5, 10.5)",0,24,24,10,,,,,,,,,,,,,,,,,,,,,,,,,,,,,,,,,,,,,89.7781652000267,None,90.27750510000624,90.32743880001362,p,1.2469112999970093,90.27750510000624,None,,,,,,,,,,,,,,,,,,,,,810199275,r,l,m,25,3,001,2022-03-07_23h19.49.602,HW1,2022.1.1,59.974870533394146,
30.bmp,"(0, 7)","(10.5, 10.5)",0,25,25,47,,,,,,,,,,,,,,,,,,,,,,,,,,,,,,,,,,,,,91.54332279996015,None,92.04261749994475,92.09263089997694,p,0.4494856999954209,92.04261749994475,None,,,,,,,,,,,,,,,,,,,,,810199275,r,l,m,25,3,001,2022-03-07_23h19.49.602,HW1,2022.1.1,59.974870533394146,
10.bmp,"(0, 7)","(10.5, 10.5)",0,26,26,21,,,,,,,,,,,,,,,,,,,,,,,,,,,,,,,,,,,,,92.5088126999326,None,93.00861679995432,93.05834650003817,p,0.428562100045383,93.00861679995432,None,,,,,,,,,,,,,,,,,,,,,810199275,r,l,m,25,3,001,2022-03-07_23h19.49.602,HW1,2022.1.1,59.974870533394146,
30.bmp,"(6.06, 3.5)","(10.5, 10.5)",0,27,27,46,,,,,,,,,,,,,,,,,,,,,,,,,,,,,,,,,,,,,93.45808080001734,None,93.95762789994478,94.00772069999948,p,0.568001399980858,93.95762789994478,None,,,,,,,,,,,,,,,,,,,,,810199275,r,l,m,25,3,001,2022-03-07_23h19.49.602,HW1,2022.1.1,59.974870533394146,
60.bmp,"(0, 7)","(10.5, 10.5)",0,28,28,86,,,,,,,,,,,,,,,,,,,,,,,,,,,,,,,,,,,,,94.55713460000698,None,95.05621870001778,95.10625399998389,o,0.34644410002510995,95.05621870001778,None,,,,,,,,,,,,,,,,,,,,,810199275,r,l,m,25,3,001,2022-03-07_23h19.49.602,HW1,2022.1.1,59.974870533394146,
20.bmp,"(0, 7)","(10.5, 10.5)",0,29,29,34,,,,,,,,,,,,,,,,,,,,,,,,,,,,,,,,,,,,,95.42341019993182,None,95.922845199937,95.97273839998525,o,0.41998260002583265,95.922845199937,None,,,,,,,,,,,,,,,,,,,,,810199275,r,l,m,25,3,001,2022-03-07_23h19.49.602,HW1,2022.1.1,59.974870533394146,
70.bmp,"(4, 0)","(7, 7)",0,30,30,92,,,,,,,,,,,,,,,,,,,,,,,,,,,,,,,,,,,,,96.37217570003122,None,96.87208769994322,96.92183759994805,o,0.5326674999669194,96.87208769994322,None,,,,,,,,,,,,,,,,,,,,,810199275,r,l,m,25,3,001,2022-03-07_23h19.49.602,HW1,2022.1.1,59.974870533394146,
40.bmp,"(-2, 6.92)","(7, 7)",0,31,31,55,,,,,,,,,,,,,,,,,,,,,,,,,,,,,,,,,,,,,97.42123460001312,None,97.92094849993009,97.97069470002316,o,0.5275790999876335,97.92094849993009,None,,,,,,,,,,,,,,,,,,,,,810199275,r,l,m,25,3,001,2022-03-07_23h19.49.602,HW1,2022.1.1,59.974870533394146,
0.bmp,"(-4, 0)","(7, 7)",0,32,32,4,,,,,,,,,,,,,,,,,,,,,,,,,,,,,,,,,,,,,98.47037260001525,None,98.9699298000196,99.01989719993435,o,0.5158340999623761,98.9699298000196,None,,,,,,,,,,,,,,,,,,,,,810199275,r,l,m,25,3,001,2022-03-07_23h19.49.602,HW1,2022.1.1,59.974870533394146,
70.bmp,"(-2, 6.92)","(7, 7)",0,33,33,94,,,,,,,,,,,,,,,,,,,,,,,,,,,,,,,,,,,,,99.50295090000145,None,100.00246039999183,100.05239229998551,o,0.6545804999768734,100.00246039999183,None,,,,,,,,,,,,,,,,,,,,,810199275,r,l,m,25,3,001,2022-03-07_23h19.49.602,HW1,2022.1.1,59.974870533394146,
70.bmp,"(-2, -6.92)","(7, 7)",0,34,34,96,,,,,,,,,,,,,,,,,,,,,,,,,,,,,,,,,,,,,100.68528899992816,None,101.18485279998276,101.23484369996004,p,0.3536084999796003,101.18485279998276,None,,,,,,,,,,,,,,,,,,,,,810199275,r,l,m,25,3,001,2022-03-07_23h19.49.602,HW1,2022.1.1,59.974870533394146,
50.bmp,"(-2, -6.92)","(7, 7)",0,35,35,70,,,,,,,,,,,,,,,,,,,,,,,,,,,,,,,,,,,,,101.5676572000375,None,102.06733620003797,102.11741840001196,p,0.5855282000266016,102.06733620003797,None,,,,,,,,,,,,,,,,,,,,,810199275,r,l,m,25,3,001,2022-03-07_23h19.49.602,HW1,2022.1.1,59.974870533394146,
30.bmp,"(-2, 6.92)","(7, 7)",0,36,36,42,,,,,,,,,,,,,,,,,,,,,,,,,,,,,,,,,,,,,102.68333619995974,None,103.18301799998153,103.23291240003891,o,0.7872255000984296,103.18301799998153,None,,,,,,,,,,,,,,,,,,,,,810199275,r,l,m,25,3,001,2022-03-07_23h19.49.602,HW1,2022.1.1,59.974870533394146,
20.bmp,"(4, 0)","(7, 7)",0,37,37,27,,,,,,,,,,,,,,,,,,,,,,,,,,,,,,,,,,,,,103.99877339997329,None,104.49843509995844,104.54845420003403,o,0.7213473999872804,104.49843509995844,None,,,,,,,,,,,,,,,,,,,,,810199275,r,l,m,25,3,001,2022-03-07_23h19.49.602,HW1,2022.1.1,59.974870533394146,
40.bmp,"(0, 7)","(10.5, 10.5)",0,38,38,60,,,,,,,,,,,,,,,,,,,,,,,,,,,,,,,,,,,,,105.24769099999685,None,105.74745899997652,105.79720120003913,o,0.6932306999806315,105.74745899997652,None,,,,,,,,,,,,,,,,,,,,,810199275,r,l,m,25,3,001,2022-03-07_23h19.49.602,HW1,2022.1.1,59.974870533394146,
10.bmp,"(-6.06, -3.5)","(10.5, 10.5)",0,39,39,23,,,,,,,,,,,,,,,,,,,,,,,,,,,,,,,,,,,,,106.4633593999315,None,106.96304259996396,107.01284580002539,p,0.6196610999759287,106.96304259996396,None,,,,,,,,,,,,,,,,,,,,,810199275,r,l,m,25,3,001,2022-03-07_23h19.49.602,HW1,2022.1.1,59.974870533394146,
10.bmp,"(4, 0)","(7, 7)",0,40,40,14,,,,,,,,,,,,,,,,,,,,,,,,,,,,,,,,,,,,,107.61252439999953,None,108.11192079994362,108.16187099996023,p,0.8096351999556646,108.11192079994362,None,,,,,,,,,,,,,,,,,,,,,810199275,r,l,m,25,3,001,2022-03-07_23h19.49.602,HW1,2022.1.1,59.974870533394146,
40.bmp,"(-6.06, 3.5)","(10.5, 10.5)",0,41,41,61,,,,,,,,,,,,,,,,,,,,,,,,,,,,,,,,,,,,,108.9445745999692,None,109.44518369995058,109.49447769997641,p,0.5884988000616431,109.44518369995058,None,,,,,,,,,,,,,,,,,,,,,810199275,r,l,m,25,3,001,2022-03-07_23h19.49.602,HW1,2022.1.1,59.974870533394146,
70.bmp,"(6.06, -3.5)","(10.5, 10.5)",0,42,42,103,,,,,,,,,,,,,,,,,,,,,,,,,,,,,,,,,,,,,110.06033180002123,None,110.5601037000306,110.60981840000022,o,0.7620080000488088,110.5601037000306,None,,,,,,,,,,,,,,,,,,,,,810199275,r,l,m,25,3,001,2022-03-07_23h19.49.602,HW1,2022.1.1,59.974870533394146,
80.bmp,"(-4, 0)","(7, 7)",0,43,43,108,,,,,,,,,,,,,,,,,,,,,,,,,,,,,,,,,,,,,111.34260879992507,None,111.84231450001244,111.89213269995525,p,0.6106878001010045,111.84231450001244,None,,,,,,,,,,,,,,,,,,,,,810199275,r,l,m,25,3,001,2022-03-07_23h19.49.602,HW1,2022.1.1,59.974870533394146,
50.bmp,"(0, 7)","(10.5, 10.5)",0,44,44,73,,,,,,,,,,,,,,,,,,,,,,,,,,,,,,,,,,,,,112.47475219995249,None,112.97406949999277,113.02391650003847,o,0.580295899999328,112.97406949999277,None,,,,,,,,,,,,,,,,,,,,,810199275,r,l,m,25,3,001,2022-03-07_23h19.49.602,HW1,2022.1.1,59.974870533394146,
70.bmp,"(-6.06, -3.5)","(10.5, 10.5)",0,45,45,101,,,,,,,,,,,,,,,,,,,,,,,,,,,,,,,,,,,,,113.57369859993923,None,114.07344459998421,114.123594100005,o,0.6338324000826105,114.07344459998421,None,,,,,,,,,,,,,,,,,,,,,810199275,r,l,m,25,3,001,2022-03-07_23h19.49.602,HW1,2022.1.1,59.974870533394146,
0.bmp,"(-2, 6.92)","(7, 7)",0,46,46,3,,,,,,,,,,,,,,,,,,,,,,,,,,,,,,,,,,,,,114.73926239996217,None,115.23870819993317,115.28875750000589,o,0.5103386999107897,115.23870819993317,None,,,,,,,,,,,,,,,,,,,,,810199275,r,l,m,25,3,001,2022-03-07_23h19.49.602,HW1,2022.1.1,59.974870533394146,
80.bmp,"(0, -7)","(10.5, 10.5)",0,47,47,115,,,,,,,,,,,,,,,,,,,,,,,,,,,,,,,,,,,,,115.77188190002926,None,116.27153819997329,116.32139149995055,p,0.6275374999968335,116.27153819997329,None,,,,,,,,,,,,,,,,,,,,,810199275,r,l,m,25,3,001,2022-03-07_23h19.49.602,HW1,2022.1.1,59.974870533394146,
40.bmp,"(4, 0)","(7, 7)",0,48,48,53,,,,,,,,,,,,,,,,,,,,,,,,,,,,,,,,,,,,,116.92116110003553,None,117.42024060001131,117.47012489999179,p,0.6446412999648601,117.42024060001131,None,,,,,,,,,,,,,,,,,,,,,810199275,r,l,m,25,3,001,2022-03-07_23h19.49.602,HW1,2022.1.1,59.974870533394146,
30.bmp,"(-4, 0)","(7, 7)",0,49,49,43,,,,,,,,,,,,,,,,,,,,,,,,,,,,,,,,,,,,,118.08662179997191,None,118.58569989993703,118.63608580001164,p,0.5742445000214502,118.58569989993703,None,,,,,,,,,,,,,,,,,,,,,810199275,r,l,m,25,3,001,2022-03-07_23h19.49.602,HW1,2022.1.1,59.974870533394146,
40.bmp,"(2, -6.92)","(7, 7)",0,50,50,58,,,,,,,,,,,,,,,,,,,,,,,,,,,,,,,,,,,,,119.18583410000429,None,119.70160649996251,119.75144080002792,p,0.5709001999348402,119.70160649996251,None,,,,,,,,,,,,,,,,,,,,,810199275,r,l,m,25,3,001,2022-03-07_23h19.49.602,HW1,2022.1.1,59.974870533394146,
0.bmp,"(-2, -6.92)","(7, 7)",0,51,51,5,,,,,,,,,,,,,,,,,,,,,,,,,,,,,,,,,,,,,120.30150379997212,None,120.8012225999264,120.85092779994011,p,0.5658916999818757,120.8012225999264,None,,,,,,,,,,,,,,,,,,,,,810199275,r,l,m,25,3,001,2022-03-07_23h19.49.602,HW1,2022.1.1,59.974870533394146,
20.bmp,"(-2, 6.92)","(7, 7)",0,52,52,29,,,,,,,,,,,,,,,,,,,,,,,,,,,,,,,,,,,,,121.3838897999376,None,121.88313450000715,121.93300950003322,p,0.6407286999747157,121.88313450000715,None,,,,,,,,,,,,,,,,,,,,,810199275,r,l,m,25,3,001,2022-03-07_23h19.49.602,HW1,2022.1.1,59.974870533394146,
0.bmp,"(0, 7)","(10.5, 10.5)",0,53,53,8,,,,,,,,,,,,,,,,,,,,,,,,,,,,,,,,,,,,,122.54933629999869,None,123.04913169995416,123.09908770001493,o,0.43902020005043596,123.04913169995416,None,,,,,,,,,,,,,,,,,,,,,810199275,r,l,m,25,3,001,2022-03-07_23h19.49.602,HW1,2022.1.1,59.974870533394146,
50.bmp,"(-6.06, 3.5)","(10.5, 10.5)",0,54,54,74,,,,,,,,,,,,,,,,,,,,,,,,,,,,,,,,,,,,,123.51512090000324,None,124.01470749999862,124.06493170000613,o,0.462147600017488,124.01470749999862,None,,,,,,,,,,,,,,,,,,,,,810199275,r,l,m,25,3,001,2022-03-07_23h19.49.602,HW1,2022.1.1,59.974870533394146,
30.bmp,"(0, -7)","(10.5, 10.5)",0,55,55,50,,,,,,,,,,,,,,,,,,,,,,,,,,,,,,,,,,,,,124.49734539992642,None,124.99727369996253,125.04757609998342,p,0.45769640000071377,124.99727369996253,None,,,,,,,,,,,,,,,,,,,,,810199275,r,l,m,25,3,001,2022-03-07_23h19.49.602,HW1,2022.1.1,59.974870533394146,
60.bmp,"(-4, 0)","(7, 7)",0,56,56,82,,,,,,,,,,,,,,,,,,,,,,,,,,,,,,,,,,,,,125.48032850003801,None,125.97957570001017,126.02948509994894,p,0.6627246999414638,125.97957570001017,None,,,,,,,,,,,,,,,,,,,,,810199275,r,l,m,25,3,001,2022-03-07_23h19.49.602,HW1,2022.1.1,59.974870533394146,
40.bmp,"(-2, -6.92)","(7, 7)",0,57,57,57,,,,,,,,,,,,,,,,,,,,,,,,,,,,,,,,,,,,,126.66217649995815,None,127.16201400000136,127.21191249997355,p,0.7767482999479398,127.16201400000136,None,,,,,,,,,,,,,,,,,,,,,810199275,r,l,m,25,3,001,2022-03-07_23h19.49.602,HW1,2022.1.1,59.974870533394146,
60.bmp,"(2, -6.92)","(7, 7)",0,58,58,84,,,,,,,,,,,,,,,,,,,,,,,,,,,,,,,,,,,,,127.96133019996341,None,128.46072289999574,128.51083509996533,o,0.7688453000737354,128.46072289999574,None,,,,,,,,,,,,,,,,,,,,,810199275,r,l,m,25,3,001,2022-03-07_23h19.49.602,HW1,2022.1.1,59.974870533394146,
70.bmp,"(-6.06, 3.5)","(10.5, 10.5)",0,59,59,100,,,,,,,,,,,,,,,,,,,,,,,,,,,,,,,,,,,,,129.26040010002907,None,129.7594165999908,129.8096534999786,o,0.8221493000164628,129.7594165999908,None,,,,,,,,,,,,,,,,,,,,,810199275,r,l,m,25,3,001,2022-03-07_23h19.49.602,HW1,2022.1.1,59.974870533394146,
50.bmp,"(-6.06, -3.5)","(10.5, 10.5)",0,60,60,75,,,,,,,,,,,,,,,,,,,,,,,,,,,,,,,,,,,,,130.6089550999459,None,131.10877960000653,131.15845759992953,p,0.7087251000339165,131.10877960000653,None,,,,,,,,,,,,,,,,,,,,,810199275,r,l,m,25,3,001,2022-03-07_23h19.49.602,HW1,2022.1.1,59.974870533394146,
60.bmp,"(0, -7)","(10.5, 10.5)",0,61,61,89,,,,,,,,,,,,,,,,,,,,,,,,,,,,,,,,,,,,,131.8412748000119,None,132.34077499993145,132.39046539994888,p,0.8015370999928564,132.34077499993145,None,,,,,,,,,,,,,,,,,,,,,810199275,r,l,m,25,3,001,2022-03-07_23h19.49.602,HW1,2022.1.1,59.974870533394146,
50.bmp,"(-4, 0)","(7, 7)",0,62,62,69,,,,,,,,,,,,,,,,,,,,,,,,,,,,,,,,,,,,,133.1734878999414,None,133.67280759999994,133.72314310004003,o,0.8389870000537485,133.67280759999994,None,,,,,,,,,,,,,,,,,,,,,810199275,r,l,m,25,3,001,2022-03-07_23h19.49.602,HW1,2022.1.1,59.974870533394146,
30.bmp,"(-6.06, -3.5)","(10.5, 10.5)",0,63,63,49,,,,,,,,,,,,,,,,,,,,,,,,,,,,,,,,,,,,,134.53891490004025,None,135.03863660001662,135.08828399993945,p,0.7345551999751478,135.03863660001662,None,,,,,,,,,,,,,,,,,,,,,810199275,r,l,m,25,3,001,2022-03-07_23h19.49.602,HW1,2022.1.1,59.974870533394146,
80.bmp,"(-2, -6.92)","(7, 7)",0,64,64,109,,,,,,,,,,,,,,,,,,,,,,,,,,,,,,,,,,,,,135.80471089994535,None,136.3039963999763,136.35418839997146,o,0.9316825999412686,136.3039963999763,None,,,,,,,,,,,,,,,,,,,,,810199275,r,l,m,25,3,001,2022-03-07_23h19.49.602,HW1,2022.1.1,59.974870533394146,
20.bmp,"(-4, 0)","(7, 7)",0,65,65,30,,,,,,,,,,,,,,,,,,,,,,,,,,,,,,,,,,,,,137.25326479994692,None,137.7528684999561,137.80234840000048,p,0.7048700000159442,137.7528684999561,None,,,,,,,,,,,,,,,,,,,,,810199275,r,l,m,25,3,001,2022-03-07_23h19.49.602,HW1,2022.1.1,59.974870533394146,
70.bmp,"(0, -7)","(10.5, 10.5)",0,66,66,102,,,,,,,,,,,,,,,,,,,,,,,,,,,,,,,,,,,,,138.48542459995952,None,138.98494019999634,139.03488619998097,o,0.5230775999370962,138.98494019999634,None,,,,,,,,,,,,,,,,,,,,,810199275,r,l,m,25,3,001,2022-03-07_23h19.49.602,HW1,2022.1.1,59.974870533394146,
20.bmp,"(0, -7)","(10.5, 10.5)",0,67,67,37,,,,,,,,,,,,,,,,,,,,,,,,,,,,,,,,,,,,,139.53472989995498,None,140.0337236999767,140.08374829997774,p,0.6122360000154004,140.0337236999767,None,,,,,,,,,,,,,,,,,,,,,810199275,r,l,m,25,3,001,2022-03-07_23h19.49.602,HW1,2022.1.1,59.974870533394146,
70.bmp,"(-4, 0)","(7, 7)",0,68,68,95,,,,,,,,,,,,,,,,,,,,,,,,,,,,,,,,,,,,,140.66696940001566,None,141.16650349996053,141.21632629993837,o,0.7955784999066964,141.16650349996053,None,,,,,,,,,,,,,,,,,,,,,810199275,r,l,m,25,3,001,2022-03-07_23h19.49.602,HW1,2022.1.1,59.974870533394146,
50.bmp,"(6.06, 3.5)","(10.5, 10.5)",0,69,69,72,,,,,,,,,,,,,,,,,,,,,,,,,,,,,,,,,,,,,141.9823201999534,None,142.48231879994273,142.53194020001683,o,0.6360237000044435,142.48231879994273,None,,,,,,,,,,,,,,,,,,,,,810199275,r,l,m,25,3,001,2022-03-07_23h19.49.602,HW1,2022.1.1,59.974870533394146,
50.bmp,"(2, -6.92)","(7, 7)",0,70,70,71,,,,,,,,,,,,,,,,,,,,,,,,,,,,,,,,,,,,,143.14819059998263,None,143.6475255000405,143.69750400003977,p,0.4953094000229612,143.6475255000405,None,,,,,,,,,,,,,,,,,,,,,810199275,r,l,m,25,3,001,2022-03-07_23h19.49.602,HW1,2022.1.1,59.974870533394146,
30.bmp,"(4, 0)","(7, 7)",0,71,71,40,,,,,,,,,,,,,,,,,,,,,,,,,,,,,,,,,,,,,144.1639043999603,None,144.66316430002917,144.71341389999725,o,0.6347096000099555,144.66316430002917,None,,,,,,,,,,,,,,,,,,,,,810199275,r,l,m,25,3,001,2022-03-07_23h19.49.602,HW1,2022.1.1,59.974870533394146,
10.bmp,"(0, -7)","(10.5, 10.5)",0,72,72,24,,,,,,,,,,,,,,,,,,,,,,,,,,,,,,,,,,,,,145.32944080000743,None,145.82936259999406,145.87891199998558,p,0.6977784999180585,145.82936259999406,None,,,,,,,,,,,,,,,,,,,,,810199275,r,l,m,25,3,001,2022-03-07_23h19.49.602,HW1,2022.1.1,59.974870533394146,
80.bmp,"(-2, 6.92)","(7, 7)",0,73,73,107,,,,,,,,,,,,,,,,,,,,,,,,,,,,,,,,,,,,,146.54502399999183,None,147.04453339998145,147.09562379994895,o,0.5629290000069886,147.04453339998145,None,,,,,,,,,,,,,,,,,,,,,810199275,r,l,m,25,3,001,2022-03-07_23h19.49.602,HW1,2022.1.1,59.974870533394146,
80.bmp,"(-6.06, 3.5)","(10.5, 10.5)",0,74,74,113,,,,,,,,,,,,,,,,,,,,,,,,,,,,,,,,,,,,,147.62752009998076,None,148.12689920002595,148.1768930000253,o,0.49872230004984885,148.12689920002595,None,,,,,,,,,,,,,,,,,,,,,810199275,r,l,m,25,3,001,2022-03-07_23h19.49.602,HW1,2022.1.1,59.974870533394146,
20.bmp,"(2, -6.92)","(7, 7)",0,75,75,32,,,,,,,,,,,,,,,,,,,,,,,,,,,,,,,,,,,,,148.6432797999587,None,149.14255759993102,149.19256599992514,p,0.6309151999885216,149.14255759993102,None,,,,,,,,,,,,,,,,,,,,,810199275,r,l,m,25,3,001,2022-03-07_23h19.49.602,HW1,2022.1.1,59.974870533394146,
20.bmp,"(2, 6.92)","(7, 7)",0,76,76,28,,,,,,,,,,,,,,,,,,,,,,,,,,,,,,,,,,,,,149.79218019999098,None,150.2918861999642,150.34184669994283,o,0.48782449995633215,150.2918861999642,None,,,,,,,,,,,,,,,,,,,,,810199275,r,l,m,25,3,001,2022-03-07_23h19.49.602,HW1,2022.1.1,59.974870533394146,
40.bmp,"(0, -7)","(10.5, 10.5)",0,77,77,63,,,,,,,,,,,,,,,,,,,,,,,,,,,,,,,,,,,,,150.80797850003,None,151.30731489998288,151.35719280003104,p,0.6024893999565393,151.30731489998288,None,,,,,,,,,,,,,,,,,,,,,810199275,r,l,m,25,3,001,2022-03-07_23h19.49.602,HW1,2022.1.1,59.974870533394146,
60.bmp,"(2, 6.92)","(7, 7)",0,78,78,80,,,,,,,,,,,,,,,,,,,,,,,,,,,,,,,,,,,,,151.94009639997967,None,152.440121899941,152.49008010001853,o,0.4415487999795005,152.440121899941,None,,,,,,,,,,,,,,,,,,,,,810199275,r,l,m,25,3,001,2022-03-07_23h19.49.602,HW1,2022.1.1,59.974870533394146,
20.bmp,"(6.06, -3.5)","(10.5, 10.5)",0,79,79,38,,,,,,,,,,,,,,,,,,,,,,,,,,,,,,,,,,,,,152.90610539994668,None,153.40562860004138,153.45531059999485,p,0.4259732000064105,153.40562860004138,None,,,,,,,,,,,,,,,,,,,,,810199275,r,l,m,25,3,001,2022-03-07_23h19.49.602,HW1,2022.1.1,59.974870533394146,
0.bmp,"(-6.06, 3.5)","(10.5, 10.5)",0,80,80,9,,,,,,,,,,,,,,,,,,,,,,,,,,,,,,,,,,,,,153.85549350001384,None,154.35497079999186,154.40501360001508,o,0.41796569991856813,154.35497079999186,None,,,,,,,,,,,,,,,,,,,,,810199275,r,l,m,25,3,001,2022-03-07_23h19.49.602,HW1,2022.1.1,59.974870533394146,
70.bmp,"(0, 7)","(10.5, 10.5)",0,81,81,99,,,,,,,,,,,,,,,,,,,,,,,,,,,,,,,,,,,,,154.80437529995106,None,155.30432899994776,155.35410470003262,o,0.6706353999907151,155.30432899994776,None,,,,,,,,,,,,,,,,,,,,,810199275,r,l,m,25,3,001,2022-03-07_23h19.49.602,HW1,2022.1.1,59.974870533394146,
40.bmp,"(2, 6.92)","(7, 7)",0,82,82,54,,,,,,,,,,,,,,,,,,,,,,,,,,,,,,,,,,,,,156.00352759996895,None,156.50288499996532,156.55291349999607,o,0.5963048000121489,156.50288499996532,None,,,,,,,,,,,,,,,,,,,,,810199275,r,l,m,25,3,001,2022-03-07_23h19.49.602,HW1,2022.1.1,59.974870533394146,
50.bmp,"(-2, 6.92)","(7, 7)",0,83,83,68,,,,,,,,,,,,,,,,,,,,,,,,,,,,,,,,,,,,,157.11926519998815,None,157.61896330001764,157.6685852999799,o,0.5453825000440702,157.61896330001764,None,,,,,,,,,,,,,,,,,,,,,810199275,r,l,m,25,3,001,2022-03-07_23h19.49.602,HW1,2022.1.1,59.974870533394146,
30.bmp,"(-2, -6.92)","(7, 7)",0,84,84,44,,,,,,,,,,,,,,,,,,,,,,,,,,,,,,,,,,,,,158.1852421000367,None,158.6844368999591,158.734478999977,p,0.5666443000081927,158.6844368999591,None,,,,,,,,,,,,,,,,,,,,,810199275,r,l,m,25,3,001,2022-03-07_23h19.49.602,HW1,2022.1.1,59.974870533394146,
80.bmp,"(6.06, 3.5)","(10.5, 10.5)",0,85,85,111,,,,,,,,,,,,,,,,,,,,,,,,,,,,,,,,,,,,,159.28358349995688,None,159.78331249998882,159.83362739998847,p,0.5351422999519855,159.78331249998882,None,,,,,,,,,,,,,,,,,,,,,810199275,r,l,m,25,3,001,2022-03-07_23h19.49.602,HW1,2022.1.1,59.974870533394146,
10.bmp,"(-2, 6.92)","(7, 7)",0,86,86,16,,,,,,,,,,,,,,,,,,,,,,,,,,,,,,,,,,,,,160.34937219996937,None,160.8492186999647,160.89918119995855,o,0.5071298000402749,160.8492186999647,None,,,,,,,,,,,,,,,,,,,,,810199275,r,l,m,25,3,001,2022-03-07_23h19.49.602,HW1,2022.1.1,59.974870533394146,
80.bmp,"(6.06, -3.5)","(10.5, 10.5)",0,87,87,116,,,,,,,,,,,,,,,,,,,,,,,,,,,,,,,,,,,,,161.38209149998147,None,161.88197310001124,161.9316827999428,p,0.5908205999294296,161.88197310001124,None,,,,,,,,,,,,,,,,,,,,,810199275,r,l,m,25,3,001,2022-03-07_23h19.49.602,HW1,2022.1.1,59.974870533394146,
70.bmp,"(6.06, 3.5)","(10.5, 10.5)",0,88,88,98,,,,,,,,,,,,,,,,,,,,,,,,,,,,,,,,,,,,,162.49759179993998,None,162.99732359999325,163.0473076000344,p,0.7518318999791518,162.99732359999325,None,,,,,,,,,,,,,,,,,,,,,810199275,r,l,m,25,3,001,2022-03-07_23h19.49.602,HW1,2022.1.1,59.974870533394146,
50.bmp,"(6.06, -3.5)","(10.5, 10.5)",0,89,89,77,,,,,,,,,,,,,,,,,,,,,,,,,,,,,,,,,,,,,163.780206299969,None,164.279673299985,164.32974960003048,p,0.8726963000372052,164.279673299985,None,,,,,,,,,,,,,,,,,,,,,810199275,r,l,m,25,3,001,2022-03-07_23h19.49.602,HW1,2022.1.1,59.974870533394146,
50.bmp,"(0, 0)","(4.375, 4.375)",0,90,90,65,,,,,,,,,,,,,,,,,,,,,,,,,,,,,,,,,,,,,165.17875069996808,None,165.67849029996432,165.72815460001584,p,0.4964449000544846,165.67849029996432,None,,,,,,,,,,,,,,,,,,,,,810199275,r,l,m,25,3,001,2022-03-07_23h19.49.602,HW1,2022.1.1,59.974870533394146,
30.bmp,"(6.06, -3.5)","(10.5, 10.5)",0,91,91,51,,,,,,,,,,,,,,,,,,,,,,,,,,,,,,,,,,,,,166.19440119992942,None,166.6943186999997,166.74394870002288,p,0.4704193000216037,166.6943186999997,None,,,,,,,,,,,,,,,,,,,,,810199275,r,l,m,25,3,001,2022-03-07_23h19.49.602,HW1,2022.1.1,59.974870533394146,
30.bmp,"(-6.06, 3.5)","(10.5, 10.5)",0,92,92,48,,,,,,,,,,,,,,,,,,,,,,,,,,,,,,,,,,,,,167.19347769999877,None,167.69340119999833,167.7430462000193,o,0.4808437000028789,167.69340119999833,None,,,,,,,,,,,,,,,,,,,,,810199275,r,l,m,25,3,001,2022-03-07_23h19.49.602,HW1,2022.1.1,59.974870533394146,
0.bmp,"(0, -7)","(10.5, 10.5)",0,93,93,11,,,,,,,,,,,,,,,,,,,,,,,,,,,,,,,,,,,,,168.1927665999392,None,168.69266840000637,168.7422254999401,o,0.5002631999086589,168.69266840000637,None,,,,,,,,,,,,,,,,,,,,,810199275,r,l,m,25,3,001,2022-03-07_23h19.49.602,HW1,2022.1.1,59.974870533394146,
60.bmp,"(-6.06, 3.5)","(10.5, 10.5)",0,94,94,87,,,,,,,,,,,,,,,,,,,,,,,,,,,,,,,,,,,,,169.22485070000403,None,169.72513499995694,169.77501250000205,p,0.8309324999572709,169.72513499995694,None,,,,,,,,,,,,,,,,,,,,,810199275,r,l,m,25,3,001,2022-03-07_23h19.49.602,HW1,2022.1.1,59.974870533394146,
80.bmp,"(-6.06, -3.5)","(10.5, 10.5)",0,95,95,114,,,,,,,,,,,,,,,,,,,,,,,,,,,,,,,,,,,,,170.57430320000276,None,171.07361550000496,171.1238139999332,o,0.6160807999549434,171.07361550000496,None,,,,,,,,,,,,,,,,,,,,,810199275,r,l,m,25,3,001,2022-03-07_23h19.49.602,HW1,2022.1.1,59.974870533394146,
70.bmp,"(0, 0)","(4.375, 4.375)",0,96,96,91,,,,,,,,,,,,,,,,,,,,,,,,,,,,,,,,,,,,,171.70646449993365,None,172.2066837999737,172.25595060002524,p,0.6689874000148848,172.2066837999737,None,,,,,,,,,,,,,,,,,,,,,810199275,r,l,m,25,3,001,2022-03-07_23h19.49.602,HW1,2022.1.1,59.974870533394146,
10.bmp,"(6.06, 3.5)","(10.5, 10.5)",0,97,97,20,,,,,,,,,,,,,,,,,,,,,,,,,,,,,,,,,,,,,172.9054728000192,None,173.40478310000617,173.4548864000244,p,0.5823165000183508,173.40478310000617,None,,,,,,,,,,,,,,,,,,,,,810199275,r,l,m,25,3,001,2022-03-07_23h19.49.602,HW1,2022.1.1,59.974870533394146,
50.bmp,"(0, -7)","(10.5, 10.5)",0,98,98,76,,,,,,,,,,,,,,,,,,,,,,,,,,,,,,,,,,,,,174.0043196999468,None,174.50383790000342,174.55356949998531,p,0.6330974999582395,174.50383790000342,None,,,,,,,,,,,,,,,,,,,,,810199275,r,l,m,25,3,001,2022-03-07_23h19.49.602,HW1,2022.1.1,59.974870533394146,
20.bmp,"(6.06, 3.5)","(10.5, 10.5)",0,99,99,33,,,,,,,,,,,,,,,,,,,,,,,,,,,,,,,,,,,,,175.15350010001566,None,175.65311990003102,175.70306390000042,p,0.7807577000930905,175.65311990003102,None,,,,,,,,,,,,,,,,,,,,,810199275,r,l,m,25,3,001,2022-03-07_23h19.49.602,HW1,2022.1.1,59.974870533394146,
40.bmp,"(-6.06, -3.5)","(10.5, 10.5)",0,100,100,62,,,,,,,,,,,,,,,,,,,,,,,,,,,,,,,,,,,,,176.45236470003147,None,176.95182109996676,177.0016209000023,p,0.6752822000999004,176.95182109996676,None,,,,,,,,,,,,,,,,,,,,,810199275,r,l,m,25,3,001,2022-03-07_23h19.49.602,HW1,2022.1.1,59.974870533394146,
20.bmp,"(-2, -6.92)","(7, 7)",0,101,101,31,,,,,,,,,,,,,,,,,,,,,,,,,,,,,,,,,,,,,177.65119509992655,None,178.1505318999989,178.20027739997022,p,0.6768266999861225,178.1505318999989,None,,,,,,,,,,,,,,,,,,,,,810199275,r,l,m,25,3,001,2022-03-07_23h19.49.602,HW1,2022.1.1,59.974870533394146,
40.bmp,"(-4, 0)","(7, 7)",0,102,102,56,,,,,,,,,,,,,,,,,,,,,,,,,,,,,,,,,,,,,178.85040929995012,None,179.3500063000247,179.39959249994718,p,0.6130180000327528,179.3500063000247,None,,,,,,,,,,,,,,,,,,,,,810199275,r,l,m,25,3,001,2022-03-07_23h19.49.602,HW1,2022.1.1,59.974870533394146,
80.bmp,"(2, -6.92)","(7, 7)",0,103,103,110,,,,,,,,,,,,,,,,,,,,,,,,,,,,,,,,,,,,,179.98244009993505,None,180.48188899992965,180.53215420001652,p,0.6381243000505492,180.48188899992965,None,,,,,,,,,,,,,,,,,,,,,810199275,r,l,m,25,3,001,2022-03-07_23h19.49.602,HW1,2022.1.1,59.974870533394146,
0.bmp,"(0, 0)","(4.375, 4.375)",0,104,104,0,,,,,,,,,,,,,,,,,,,,,,,,,,,,,,,,,,,,,181.1482388000004,None,181.64783469995018,181.69764559995383,p,0.8792208000086248,181.64783469995018,None,,,,,,,,,,,,,,,,,,,,,810199275,r,l,m,25,3,001,2022-03-07_23h19.49.602,HW1,2022.1.1,59.974870533394146,
60.bmp,"(-6.06, -3.5)","(10.5, 10.5)",0,105,105,88,,,,,,,,,,,,,,,,,,,,,,,,,,,,,,,,,,,,,182.54719119996298,None,183.04706609994173,183.09675989998505,p,1.9853041999740526,183.04706609994173,None,,,,,,,,,,,,,,,,,,,,,810199275,r,l,m,25,3,001,2022-03-07_23h19.49.602,HW1,2022.1.1,59.974870533394146,
50.bmp,"(4, 0)","(7, 7)",0,106,106,66,,,,,,,,,,,,,,,,,,,,,,,,,,,,,,,,,,,,,185.06124349997845,None,185.56088260002434,185.61120379995555,p,0.5349342999979854,185.56088260002434,None,,,,,,,,,,,,,,,,,,,,,810199275,r,l,m,25,3,001,2022-03-07_23h19.49.602,HW1,2022.1.1,59.974870533394146,
80.bmp,"(4, 0)","(7, 7)",0,107,107,105,,,,,,,,,,,,,,,,,,,,,,,,,,,,,,,,,,,,,186.12738379999064,None,186.62669459998142,186.6767243000213,p,0.4923930000513792,186.62669459998142,None,,,,,,,,,,,,,,,,,,,,,810199275,r,l,m,25,3,001,2022-03-07_23h19.49.602,HW1,2022.1.1,59.974870533394146,
10.bmp,"(6.06, -3.5)","(10.5, 10.5)",0,108,108,25,,,,,,,,,,,,,,,,,,,,,,,,,,,,,,,,,,,,,187.14291099994443,None,187.64241810003296,187.69270769995637,p,0.5307654000353068,187.64241810003296,None,,,,,,,,,,,,,,,,,,,,,810199275,r,l,m,25,3,001,2022-03-07_23h19.49.602,HW1,2022.1.1,59.974870533394146,
60.bmp,"(6.06, 3.5)","(10.5, 10.5)",0,109,109,85,,,,,,,,,,,,,,,,,,,,,,,,,,,,,,,,,,,,,188.1919725999469,None,188.69140170002356,188.74177540000528,p,0.4404701000312343,188.69140170002356,None,,,,,,,,,,,,,,,,,,,,,810199275,r,l,m,25,3,001,2022-03-07_23h19.49.602,HW1,2022.1.1,59.974870533394146,
30.bmp,"(0, 0)","(4.375, 4.375)",0,110,110,39,,,,,,,,,,,,,,,,,,,,,,,,,,,,,,,,,,,,,189.1580667999806,None,189.6574306000257,189.70751829992514,p,0.6457472000038251,189.6574306000257,None,,,,,,,,,,,,,,,,,,,,,810199275,r,l,m,25,3,001,2022-03-07_23h19.49.602,HW1,2022.1.1,59.974870533394146,
60.bmp,"(0, 0)","(4.375, 4.375)",0,111,111,78,,,,,,,,,,,,,,,,,,,,,,,,,,,,,,,,,,,,,190.323447200004,None,190.82327209995128,190.87389849999454,p,0.72187320003286,190.82327209995128,None,,,,,,,,,,,,,,,,,,,,,810199275,r,l,m,25,3,001,2022-03-07_23h19.49.602,HW1,2022.1.1,59.974870533394146,
50.bmp,"(2, 6.92)","(7, 7)",0,112,112,67,,,,,,,,,,,,,,,,,,,,,,,,,,,,,,,,,,,,,191.57216069998685,None,192.071916099987,192.12181809998583,o,0.5192891999613494,192.071916099987,None,,,,,,,,,,,,,,,,,,,,,810199275,r,l,m,25,3,001,2022-03-07_23h19.49.602,HW1,2022.1.1,59.974870533394146,
40.bmp,"(6.06, 3.5)","(10.5, 10.5)",0,113,113,59,,,,,,,,,,,,,,,,,,,,,,,,,,,,,,,,,,,,,192.62182959995698,None,193.1210275000194,193.17117919994052,o,0.614819600014016,193.1210275000194,None,,,,,,,,,,,,,,,,,,,,,810199275,r,l,m,25,3,001,2022-03-07_23h19.49.602,HW1,2022.1.1,59.974870533394146,
0.bmp,"(2, -6.92)","(7, 7)",0,114,114,6,,,,,,,,,,,,,,,,,,,,,,,,,,,,,,,,,,,,,193.75383790000342,None,194.2534413000103,194.30352149996907,o,0.5572656999574974,194.2534413000103,None,,,,,,,,,,,,,,,,,,,,,810199275,r,l,m,25,3,001,2022-03-07_23h19.49.602,HW1,2022.1.1,59.974870533394146,
20.bmp,"(0, 0)","(4.375, 4.375)",0,115,115,26,,,,,,,,,,,,,,,,,,,,,,,,,,,,,,,,,,,,,194.83621480001602,None,195.3361867000349,195.38548479997553,p,0.5811401000246406,195.3361867000349,None,,,,,,,,,,,,,,,,,,,,,810199275,r,l,m,25,3,001,2022-03-07_23h19.49.602,HW1,2022.1.1,59.974870533394146,
0.bmp,"(6.06, 3.5)","(10.5, 10.5)",0,116,116,7,,,,,,,,,,,,,,,,,,,,,,,,,,,,,,,,,,,,,195.935300800018,None,196.43548029998783,196.48493559996132,p,0.621474799932912,196.43548029998783,None,,,,,,,,,,,,,,,,,,,,,810199275,r,l,m,25,3,001,2022-03-07_23h19.49.602,HW1,2022.1.1,59.974870533394146,
50.bmp,"(0, 0)","(4.375, 4.375)",1,0,117,65,,,,,,,,,,,,,,,,,,,,,,,,,,,,,,,,,,,,,197.0844097000081,None,197.58375470002647,197.63368279999122,p,0.4690144000342116,197.58375470002647,None,,,,,,,,,,,,,,,,,,,,,810199275,r,l,m,25,3,001,2022-03-07_23h19.49.602,HW1,2022.1.1,59.974870533394146,
70.bmp,"(0, 0)","(4.375, 4.375)",1,1,118,91,,,,,,,,,,,,,,,,,,,,,,,,,,,,,,,,,,,,,198.0832975000376,None,198.58304159995168,198.63298140000552,p,0.48357829998712987,198.58304159995168,None,,,,,,,,,,,,,,,,,,,,,810199275,r,l,m,25,3,001,2022-03-07_23h19.49.602,HW1,2022.1.1,59.974870533394146,
20.bmp,"(0, -7)","(10.5, 10.5)",1,2,119,37,,,,,,,,,,,,,,,,,,,,,,,,,,,,,,,,,,,,,199.0991725999629,None,199.59873450000305,199.64867130003404,p,0.5144627999980003,199.59873450000305,None,,,,,,,,,,,,,,,,,,,,,810199275,r,l,m,25,3,001,2022-03-07_23h19.49.602,HW1,2022.1.1,59.974870533394146,
60.bmp,"(6.06, 3.5)","(10.5, 10.5)",1,3,120,85,,,,,,,,,,,,,,,,,,,,,,,,,,,,,,,,,,,,,200.13166600000113,None,200.63090119999833,200.68082659994252,p,0.5458517000079155,200.63090119999833,None,,,,,,,,,,,,,,,,,,,,,810199275,r,l,m,25,3,001,2022-03-07_23h19.49.602,HW1,2022.1.1,59.974870533394146,
70.bmp,"(0, 7)","(10.5, 10.5)",1,4,121,99,,,,,,,,,,,,,,,,,,,,,,,,,,,,,,,,,,,,,201.19753250002395,None,201.69682930002455,201.74679909995757,o,0.584874700056389,201.69682930002455,None,,,,,,,,,,,,,,,,,,,,,810199275,r,l,m,25,3,001,2022-03-07_23h19.49.602,HW1,2022.1.1,59.974870533394146,
40.bmp,"(0, 7)","(10.5, 10.5)",1,5,122,60,,,,,,,,,,,,,,,,,,,,,,,,,,,,,,,,,,,,,202.31295029993635,None,202.81223909999244,202.8624413999496,o,0.506237699999474,202.81223909999244,None,,,,,,,,,,,,,,,,,,,,,810199275,r,l,m,25,3,001,2022-03-07_23h19.49.602,HW1,2022.1.1,59.974870533394146,
80.bmp,"(0, -7)","(10.5, 10.5)",1,6,123,115,,,,,,,,,,,,,,,,,,,,,,,,,,,,,,,,,,,,,203.34535740001593,None,203.84515189996455,203.89490349998232,p,0.5885058999992907,203.84515189996455,None,,,,,,,,,,,,,,,,,,,,,810199275,r,l,m,25,3,001,2022-03-07_23h19.49.602,HW1,2022.1.1,59.974870533394146,
60.bmp,"(6.06, -3.5)","(10.5, 10.5)",1,7,124,90,,,,,,,,,,,,,,,,,,,,,,,,,,,,,,,,,,,,,204.46109849994536,None,204.96057719993405,205.01040659996215,p,0.9779050999786705,204.96057719993405,None,,,,,,,,,,,,,,,,,,,,,810199275,r,l,m,25,3,001,2022-03-07_23h19.49.602,HW1,2022.1.1,59.974870533394146,
50.bmp,"(2, 6.92)","(7, 7)",1,8,125,67,,,,,,,,,,,,,,,,,,,,,,,,,,,,,,,,,,,,,205.9597822999349,None,206.45932549994905,206.50932259997353,p,0.745798800024204,206.45932549994905,None,,,,,,,,,,,,,,,,,,,,,810199275,r,l,m,25,3,001,2022-03-07_23h19.49.602,HW1,2022.1.1,59.974870533394146,
10.bmp,"(0, -7)","(10.5, 10.5)",1,9,126,24,,,,,,,,,,,,,,,,,,,,,,,,,,,,,,,,,,,,,207.22546079999302,None,207.7248789999867,207.77507229999173,p,0.9168656999245286,207.7248789999867,None,,,,,,,,,,,,,,,,,,,,,810199275,r,l,m,25,3,001,2022-03-07_23h19.49.602,HW1,2022.1.1,59.974870533394146,
0.bmp,"(-6.06, -3.5)","(10.5, 10.5)",1,10,127,10,,,,,,,,,,,,,,,,,,,,,,,,,,,,,,,,,,,,,208.67423260002397,None,209.1743051999947,209.22359710000455,o,0.5329085000557825,209.1743051999947,None,,,,,,,,,,,,,,,,,,,,,810199275,r,l,m,25,3,001,2022-03-07_23h19.49.602,HW1,2022.1.1,59.974870533394146,
20.bmp,"(-6.06, -3.5)","(10.5, 10.5)",1,11,128,36,,,,,,,,,,,,,,,,,,,,,,,,,,,,,,,,,,,,,209.74021509999875,None,210.23929169995245,210.28940689994488,p,0.6760178999975324,210.23929169995245,None,,,,,,,,,,,,,,,,,,,,,810199275,r,l,m,25,3,001,2022-03-07_23h19.49.602,HW1,2022.1.1,59.974870533394146,
50.bmp,"(-2, 6.92)","(7, 7)",1,12,129,68,,,,,,,,,,,,,,,,,,,,,,,,,,,,,,,,,,,,,210.93891499994788,None,211.43836919998284,211.4884946999373,o,0.6324016000144184,211.43836919998284,None,,,,,,,,,,,,,,,,,,,,,810199275,r,l,m,25,3,001,2022-03-07_23h19.49.602,HW1,2022.1.1,59.974870533394146,
70.bmp,"(-4, 0)","(7, 7)",1,13,130,95,,,,,,,,,,,,,,,,,,,,,,,,,,,,,,,,,,,,,212.08794709993526,None,212.5873168000253,212.63734619994648,p,0.7251926999306306,212.5873168000253,None,,,,,,,,,,,,,,,,,,,,,810199275,r,l,m,25,3,001,2022-03-07_23h19.49.602,HW1,2022.1.1,59.974870533394146,
10.bmp,"(0, 0)","(4.375, 4.375)",1,14,131,13,,,,,,,,,,,,,,,,,,,,,,,,,,,,,,,,,,,,,213.33664029999636,None,213.8362454000162,213.88619759993162,p,0.6004040000261739,213.8362454000162,None,,,,,,,,,,,,,,,,,,,,,810199275,r,l,m,25,3,001,2022-03-07_23h19.49.602,HW1,2022.1.1,59.974870533394146,
0.bmp,"(-4, 0)","(7, 7)",1,15,132,4,,,,,,,,,,,,,,,,,,,,,,,,,,,,,,,,,,,,,214.46904450003058,None,214.9686842999654,215.0188145999564,p,0.5863641999894753,214.9686842999654,None,,,,,,,,,,,,,,,,,,,,,810199275,r,l,m,25,3,001,2022-03-07_23h19.49.602,HW1,2022.1.1,59.974870533394146,
20.bmp,"(2, -6.92)","(7, 7)",1,16,133,32,,,,,,,,,,,,,,,,,,,,,,,,,,,,,,,,,,,,,215.58473769994453,None,216.0846068999963,216.13413909997325,p,0.8406757999910042,216.0846068999963,None,,,,,,,,,,,,,,,,,,,,,810199275,r,l,m,25,3,001,2022-03-07_23h19.49.602,HW1,2022.1.1,59.974870533394146,
80.bmp,"(2, 6.92)","(7, 7)",1,17,134,106,,,,,,,,,,,,,,,,,,,,,,,,,,,,,,,,,,,,,216.95010569994338,None,217.44974489999004,217.4998289999785,o,0.6690095999510959,217.44974489999004,None,,,,,,,,,,,,,,,,,,,,,810199275,r,l,m,25,3,001,2022-03-07_23h19.49.602,HW1,2022.1.1,59.974870533394146,
60.bmp,"(0, 7)","(10.5, 10.5)",1,18,135,86,,,,,,,,,,,,,,,,,,,,,,,,,,,,,,,,,,,,,218.14948259992525,None,218.6484656999819,218.6982501000166,o,0.5817682999186218,218.6484656999819,None,,,,,,,,,,,,,,,,,,,,,810199275,r,l,m,25,3,001,2022-03-07_23h19.49.602,HW1,2022.1.1,59.974870533394146,
80.bmp,"(4, 0)","(7, 7)",1,19,136,105,,,,,,,,,,,,,,,,,,,,,,,,,,,,,,,,,,,,,219.24805829999968,None,219.74771789996885,219.7977179000154,o,0.9908865999896079,219.74771789996885,None,,,,,,,,,,,,,,,,,,,,,810199275,r,l,m,25,3,001,2022-03-07_23h19.49.602,HW1,2022.1.1,59.974870533394146,
30.bmp,"(-4, 0)","(7, 7)",1,20,137,43,,,,,,,,,,,,,,,,,,,,,,,,,,,,,,,,,,,,,220.7634821999818,None,221.26304650004022,221.31307629996445,p,0.6258508999599144,221.26304650004022,None,,,,,,,,,,,,,,,,,,,,,810199275,r,l,m,25,3,001,2022-03-07_23h19.49.602,HW1,2022.1.1,59.974870533394146,
40.bmp,"(0, -7)","(10.5, 10.5)",1,21,138,63,,,,,,,,,,,,,,,,,,,,,,,,,,,,,,,,,,,,,221.91271750000305,None,222.41243939998094,222.46238649997395,p,0.912754499935545,222.41243939998094,None,,,,,,,,,,,,,,,,,,,,,810199275,r,l,m,25,3,001,2022-03-07_23h19.49.602,HW1,2022.1.1,59.974870533394146,
50.bmp,"(-4, 0)","(7, 7)",1,22,139,69,,,,,,,,,,,,,,,,,,,,,,,,,,,,,,,,,,,,,223.3449629000388,None,223.8443693999434,223.8943081999896,p,0.6174025000073016,223.8443693999434,None,,,,,,,,,,,,,,,,,,,,,810199275,r,l,m,25,3,001,2022-03-07_23h19.49.602,HW1,2022.1.1,59.974870533394146,
20.bmp,"(-2, -6.92)","(7, 7)",1,23,140,31,,,,,,,,,,,,,,,,,,,,,,,,,,,,,,,,,,,,,224.4937879999634,None,224.99328479997348,225.04339340003207,o,1.230016199988313,224.99328479997348,None,,,,,,,,,,,,,,,,,,,,,810199275,r,l,m,25,3,001,2022-03-07_23h19.49.602,HW1,2022.1.1,59.974870533394146,
80.bmp,"(-6.06, -3.5)","(10.5, 10.5)",1,24,141,114,,,,,,,,,,,,,,,,,,,,,,,,,,,,,,,,,,,,,226.24208799994085,None,226.74192709999625,226.79150009993464,o,0.8796301999827847,226.74192709999625,None,,,,,,,,,,,,,,,,,,,,,810199275,r,l,m,25,3,001,2022-03-07_23h19.49.602,HW1,2022.1.1,59.974870533394146,
80.bmp,"(-2, 6.92)","(7, 7)",1,25,142,107,,,,,,,,,,,,,,,,,,,,,,,,,,,,,,,,,,,,,227.64080059994012,None,228.14059309998993,228.19043910002802,o,0.6420081000542268,228.14059309998993,None,,,,,,,,,,,,,,,,,,,,,810199275,r,l,m,25,3,001,2022-03-07_23h19.49.602,HW1,2022.1.1,59.974870533394146,
70.bmp,"(-6.06, -3.5)","(10.5, 10.5)",1,26,143,101,,,,,,,,,,,,,,,,,,,,,,,,,,,,,,,,,,,,,228.80663400003687,None,229.30617460003123,229.35617359995376,p,0.6379317999817431,229.30617460003123,None,,,,,,,,,,,,,,,,,,,,,810199275,r,l,m,25,3,001,2022-03-07_23h19.49.602,HW1,2022.1.1,59.974870533394146,
20.bmp,"(0, 7)","(10.5, 10.5)",1,27,144,34,,,,,,,,,,,,,,,,,,,,,,,,,,,,,,,,,,,,,229.97249810001813,None,230.47160489996895,230.52169259998482,o,0.5756775999907404,230.47160489996895,None,,,,,,,,,,,,,,,,,,,,,810199275,r,l,m,25,3,001,2022-03-07_23h19.49.602,HW1,2022.1.1,59.974870533394146,
70.bmp,"(-2, 6.92)","(7, 7)",1,28,145,94,,,,,,,,,,,,,,,,,,,,,,,,,,,,,,,,,,,,,231.07130740000866,None,231.570922599989,231.62085119995754,o,0.5186135000549257,231.570922599989,None,,,,,,,,,,,,,,,,,,,,,810199275,r,l,m,25,3,001,2022-03-07_23h19.49.602,HW1,2022.1.1,59.974870533394146,
40.bmp,"(-2, -6.92)","(7, 7)",1,29,146,57,,,,,,,,,,,,,,,,,,,,,,,,,,,,,,,,,,,,,232.1204238999635,None,232.62003550003283,232.6699743999634,o,0.6050183000043035,232.62003550003283,None,,,,,,,,,,,,,,,,,,,,,810199275,r,l,m,25,3,001,2022-03-07_23h19.49.602,HW1,2022.1.1,59.974870533394146,
40.bmp,"(6.06, -3.5)","(10.5, 10.5)",1,30,147,64,,,,,,,,,,,,,,,,,,,,,,,,,,,,,,,,,,,,,233.2524954000255,None,233.75224459997844,233.80235939996783,o,0.8923114000353962,233.75224459997844,None,,,,,,,,,,,,,,,,,,,,,810199275,r,l,m,25,3,001,2022-03-07_23h19.49.602,HW1,2022.1.1,59.974870533394146,
30.bmp,"(-2, 6.92)","(7, 7)",1,31,148,42,,,,,,,,,,,,,,,,,,,,,,,,,,,,,,,,,,,,,234.66840570000932,None,235.16756909992546,235.2177570000058,o,0.5555082999635488,235.16756909992546,None,,,,,,,,,,,,,,,,,,,,,810199275,r,l,m,25,3,001,2022-03-07_23h19.49.602,HW1,2022.1.1,59.974870533394146,
20.bmp,"(4, 0)","(7, 7)",1,32,149,27,,,,,,,,,,,,,,,,,,,,,,,,,,,,,,,,,,,,,235.7507774999831,None,236.24964279995766,236.30004559992813,o,0.8417901999782771,236.24964279995766,None,,,,,,,,,,,,,,,,,,,,,810199275,r,l,m,25,3,001,2022-03-07_23h19.49.602,HW1,2022.1.1,59.974870533394146,
30.bmp,"(-2, -6.92)","(7, 7)",1,33,150,44,,,,,,,,,,,,,,,,,,,,,,,,,,,,,,,,,,,,,237.11596470000222,None,237.61547850002535,237.66542899992783,o,1.4251714999554679,237.61547850002535,None,,,,,,,,,,,,,,,,,,,,,810199275,r,l,m,25,3,001,2022-03-07_23h19.49.602,HW1,2022.1.1,59.974870533394146,
40.bmp,"(2, -6.92)","(7, 7)",1,34,151,58,,,,,,,,,,,,,,,,,,,,,,,,,,,,,,,,,,,,,239.06419810000807,None,239.5639001999516,239.61402009997983,o,0.7504750000080094,239.5639001999516,None,,,,,,,,,,,,,,,,,,,,,810199275,r,l,m,25,3,001,2022-03-07_23h19.49.602,HW1,2022.1.1,59.974870533394146,
50.bmp,"(2, -6.92)","(7, 7)",1,35,152,71,,,,,,,,,,,,,,,,,,,,,,,,,,,,,,,,,,,,,240.34676370001398,None,240.8461410999298,240.89611460000742,o,0.8078422000398859,240.8461410999298,None,,,,,,,,,,,,,,,,,,,,,810199275,r,l,m,25,3,001,2022-03-07_23h19.49.602,HW1,2022.1.1,59.974870533394146,
0.bmp,"(6.06, 3.5)","(10.5, 10.5)",1,36,153,7,,,,,,,,,,,,,,,,,,,,,,,,,,,,,,,,,,,,,241.67822170001455,None,242.17827809997834,242.22826290002558,o,0.7253939000656828,242.17827809997834,None,,,,,,,,,,,,,,,,,,,,,810199275,r,l,m,25,3,001,2022-03-07_23h19.49.602,HW1,2022.1.1,59.974870533394146,
60.bmp,"(4, 0)","(7, 7)",1,37,154,79,,,,,,,,,,,,,,,,,,,,,,,,,,,,,,,,,,,,,242.92761549993884,None,243.42679709999356,243.47723349998705,o,0.41448849998414516,243.42679709999356,None,,,,,,,,,,,,,,,,,,,,,810199275,r,l,m,25,3,001,2022-03-07_23h19.49.602,HW1,2022.1.1,59.974870533394146,
70.bmp,"(0, -7)","(10.5, 10.5)",1,38,155,102,,,,,,,,,,,,,,,,,,,,,,,,,,,,,,,,,,,,,243.86027990002185,None,244.35974300000817,244.4096845999593,o,0.4159015999175608,244.35974300000817,None,,,,,,,,,,,,,,,,,,,,,810199275,r,l,m,25,3,001,2022-03-07_23h19.49.602,HW1,2022.1.1,59.974870533394146,
40.bmp,"(-6.06, -3.5)","(10.5, 10.5)",1,39,156,62,,,,,,,,,,,,,,,,,,,,,,,,,,,,,,,,,,,,,244.79252439993434,None,245.29224079998676,245.34241039992776,o,0.512658099993132,245.29224079998676,None,,,,,,,,,,,,,,,,,,,,,810199275,r,l,m,25,3,001,2022-03-07_23h19.49.602,HW1,2022.1.1,59.974870533394146,
20.bmp,"(-4, 0)","(7, 7)",1,40,157,30,,,,,,,,,,,,,,,,,,,,,,,,,,,,,,,,,,,,,245.82507759996224,None,246.32471620000433,246.37471679993905,p,0.6272383999312297,246.32471620000433,None,,,,,,,,,,,,,,,,,,,,,810199275,r,l,m,25,3,001,2022-03-07_23h19.49.602,HW1,2022.1.1,59.974870533394146,
40.bmp,"(4, 0)","(7, 7)",1,41,158,53,,,,,,,,,,,,,,,,,,,,,,,,,,,,,,,,,,,,,246.97411359997932,None,247.47380709997378,247.52357860002667,o,1.0549618999939412,247.47380709997378,None,,,,,,,,,,,,,,,,,,,,,810199275,r,l,m,25,3,001,2022-03-07_23h19.49.602,HW1,2022.1.1,59.974870533394146,
30.bmp,"(6.06, -3.5)","(10.5, 10.5)",1,42,159,51,,,,,,,,,,,,,,,,,,,,,,,,,,,,,,,,,,,,,248.55603580002207,None,249.05582499993034,249.10555089998525,p,0.7183349999831989,249.05582499993034,None,,,,,,,,,,,,,,,,,,,,,810199275,r,l,m,25,3,001,2022-03-07_23h19.49.602,HW1,2022.1.1,59.974870533394146,
30.bmp,"(-6.06, 3.5)","(10.5, 10.5)",1,43,160,48,,,,,,,,,,,,,,,,,,,,,,,,,,,,,,,,,,,,,249.80499979993328,None,250.30436309997458,250.35435919999145,p,0.6716176000190899,250.30436309997458,None,,,,,,,,,,,,,,,,,,,,,810199275,r,l,m,25,3,001,2022-03-07_23h19.49.602,HW1,2022.1.1,59.974870533394146,
50.bmp,"(6.06, -3.5)","(10.5, 10.5)",1,44,161,77,,,,,,,,,,,,,,,,,,,,,,,,,,,,,,,,,,,,,251.00386779999826,None,251.50347200001124,251.55373389995657,o,0.8856793000595644,251.50347200001124,None,,,,,,,,,,,,,,,,,,,,,810199275,r,l,m,25,3,001,2022-03-07_23h19.49.602,HW1,2022.1.1,59.974870533394146,
50.bmp,"(6.06, 3.5)","(10.5, 10.5)",1,45,162,72,,,,,,,,,,,,,,,,,,,,,,,,,,,,,,,,,,,,,252.41922709997743,None,252.91988950001542,252.98514949996024,o,0.6794071000767872,252.91988950001542,None,,,,,,,,,,,,,,,,,,,,,810199275,r,l,m,25,3,001,2022-03-07_23h19.49.602,HW1,2022.1.1,59.974870533394146,
30.bmp,"(4, 0)","(7, 7)",1,46,163,40,,,,,,,,,,,,,,,,,,,,,,,,,,,,,,,,,,,,,253.61836039996706,None,254.11788909998722,254.16794429998845,o,0.7467658999375999,254.11788909998722,None,,,,,,,,,,,,,,,,,,,,,810199275,r,l,m,25,3,001,2022-03-07_23h19.49.602,HW1,2022.1.1,59.974870533394146,
80.bmp,"(0, 0)","(4.375, 4.375)",1,47,164,104,,,,,,,,,,,,,,,,,,,,,,,,,,,,,,,,,,,,,254.88377570000011,None,255.38332649995573,255.43330149992835,p,0.7411512000253424,255.38332649995573,None,,,,,,,,,,,,,,,,,,,,,810199275,r,l,m,25,3,001,2022-03-07_23h19.49.602,HW1,2022.1.1,59.974870533394146,
80.bmp,"(-6.06, 3.5)","(10.5, 10.5)",1,48,165,113,,,,,,,,,,,,,,,,,,,,,,,,,,,,,,,,,,,,,256.14943809993565,None,256.64905420003925,256.69887480000034,o,0.7126919000875205,256.64905420003925,None,,,,,,,,,,,,,,,,,,,,,810199275,r,l,m,25,3,001,2022-03-07_23h19.49.602,HW1,2022.1.1,59.974870533394146,
80.bmp,"(-4, 0)","(7, 7)",1,49,166,108,,,,,,,,,,,,,,,,,,,,,,,,,,,,,,,,,,,,,257.3820958000142,None,257.88105279998854,257.931066500023,o,0.5768778999336064,257.88105279998854,None,,,,,,,,,,,,,,,,,,,,,810199275,r,l,m,25,3,001,2022-03-07_23h19.49.602,HW1,2022.1.1,59.974870533394146,
70.bmp,"(2, 6.92)","(7, 7)",1,50,167,93,,,,,,,,,,,,,,,,,,,,,,,,,,,,,,,,,,,,,258.4806147000054,None,258.9800756999757,259.03026829997543,o,0.8856322999345139,258.9800756999757,None,,,,,,,,,,,,,,,,,,,,,810199275,r,l,m,25,3,001,2022-03-07_23h19.49.602,HW1,2022.1.1,59.974870533394146,
0.bmp,"(0, 0)","(4.375, 4.375)",1,51,168,0,,,,,,,,,,,,,,,,,,,,,,,,,,,,,,,,,,,,,259.896137899952,None,260.3956928999396,260.4454785999842,p,0.6140345999738201,260.3956928999396,None,,,,,,,,,,,,,,,,,,,,,810199275,r,l,m,25,3,001,2022-03-07_23h19.49.602,HW1,2022.1.1,59.974870533394146,
30.bmp,"(2, 6.92)","(7, 7)",1,52,169,41,,,,,,,,,,,,,,,,,,,,,,,,,,,,,,,,,,,,,261.0284908999456,None,261.5281891999766,261.57794709992595,o,0.5482747000642121,261.5281891999766,None,,,,,,,,,,,,,,,,,,,,,810199275,r,l,m,25,3,001,2022-03-07_23h19.49.602,HW1,2022.1.1,59.974870533394146,
10.bmp,"(-6.06, 3.5)","(10.5, 10.5)",1,53,170,22,,,,,,,,,,,,,,,,,,,,,,,,,,,,,,,,,,,,,262.09400309994817,None,262.594014500035,262.6434395000106,p,0.7126886000623927,262.594014500035,None,,,,,,,,,,,,,,,,,,,,,810199275,r,l,m,25,3,001,2022-03-07_23h19.49.602,HW1,2022.1.1,59.974870533394146,
10.bmp,"(6.06, -3.5)","(10.5, 10.5)",1,54,171,25,,,,,,,,,,,,,,,,,,,,,,,,,,,,,,,,,,,,,263.32634399994276,None,263.8260625000112,263.8759769999888,o,0.5509558999910951,263.8260625000112,None,,,,,,,,,,,,,,,,,,,,,810199275,r,l,m,25,3,001,2022-03-07_23h19.49.602,HW1,2022.1.1,59.974870533394146,
30.bmp,"(-6.06, -3.5)","(10.5, 10.5)",1,55,172,49,,,,,,,,,,,,,,,,,,,,,,,,,,,,,,,,,,,,,264.40892930002883,None,264.9086525000166,264.9582946000155,p,0.7904092000098899,264.9086525000166,None,,,,,,,,,,,,,,,,,,,,,810199275,r,l,m,25,3,001,2022-03-07_23h19.49.602,HW1,2022.1.1,59.974870533394146,
20.bmp,"(-6.06, 3.5)","(10.5, 10.5)",1,56,173,35,,,,,,,,,,,,,,,,,,,,,,,,,,,,,,,,,,,,,265.7240415000124,None,266.22393089998513,266.27407019992825,p,0.5221748999319971,266.22393089998513,None,,,,,,,,,,,,,,,,,,,,,810199275,r,l,m,25,3,001,2022-03-07_23h19.49.602,HW1,2022.1.1,59.974870533394146,
40.bmp,"(6.06, 3.5)","(10.5, 10.5)",1,57,174,59,,,,,,,,,,,,,,,,,,,,,,,,,,,,,,,,,,,,,266.7734007999534,None,267.272854299983,267.3229089999804,p,0.685043300036341,267.272854299983,None,,,,,,,,,,,,,,,,,,,,,810199275,r,l,m,25,3,001,2022-03-07_23h19.49.602,HW1,2022.1.1,59.974870533394146,
50.bmp,"(0, 7)","(10.5, 10.5)",1,58,175,73,,,,,,,,,,,,,,,,,,,,,,,,,,,,,,,,,,,,,267.98881020001136,None,268.4885474999901,268.53873349993955,o,0.541631400003098,268.4885474999901,None,,,,,,,,,,,,,,,,,,,,,810199275,r,l,m,25,3,001,2022-03-07_23h19.49.602,HW1,2022.1.1,59.974870533394146,
50.bmp,"(-6.06, -3.5)","(10.5, 10.5)",1,59,176,75,,,,,,,,,,,,,,,,,,,,,,,,,,,,,,,,,,,,,269.0549466999946,None,269.5543374000117,269.6043212999357,p,0.6019687000662088,269.5543374000117,None,,,,,,,,,,,,,,,,,,,,,810199275,r,l,m,25,3,001,2022-03-07_23h19.49.602,HW1,2022.1.1,59.974870533394146,
50.bmp,"(-6.06, 3.5)","(10.5, 10.5)",1,60,177,74,,,,,,,,,,,,,,,,,,,,,,,,,,,,,,,,,,,,,270.1870063999668,None,270.6867918999633,270.73698569997214,p,0.5596012999303639,270.6867918999633,None,,,,,,,,,,,,,,,,,,,,,810199275,r,l,m,25,3,001,2022-03-07_23h19.49.602,HW1,2022.1.1,59.974870533394146,
60.bmp,"(-2, 6.92)","(7, 7)",1,61,178,81,,,,,,,,,,,,,,,,,,,,,,,,,,,,,,,,,,,,,271.26944439997897,None,271.7691747000208,271.8188976999372,o,0.5505768998991698,271.7691747000208,None,,,,,,,,,,,,,,,,,,,,,810199275,r,l,m,25,3,001,2022-03-07_23h19.49.602,HW1,2022.1.1,59.974870533394146,
70.bmp,"(-6.06, 3.5)","(10.5, 10.5)",1,62,179,100,,,,,,,,,,,,,,,,,,,,,,,,,,,,,,,,,,,,,272.35182829992846,None,272.85134970000945,272.90129369997885,o,0.5927578000118956,272.85134970000945,None,,,,,,,,,,,,,,,,,,,,,810199275,r,l,m,25,3,001,2022-03-07_23h19.49.602,HW1,2022.1.1,59.974870533394146,
20.bmp,"(0, 0)","(4.375, 4.375)",1,63,180,26,,,,,,,,,,,,,,,,,,,,,,,,,,,,,,,,,,,,,273.467518899939,None,273.9670348999789,274.017067699926,p,0.7268523999955505,273.9670348999789,None,,,,,,,,,,,,,,,,,,,,,810199275,r,l,m,25,3,001,2022-03-07_23h19.49.602,HW1,2022.1.1,59.974870533394146,
10.bmp,"(2, -6.92)","(7, 7)",1,64,181,19,,,,,,,,,,,,,,,,,,,,,,,,,,,,,,,,,,,,,274.71616049995646,None,275.21612220001407,275.26547660003416,o,0.6606379000004381,275.21612220001407,None,,,,,,,,,,,,,,,,,,,,,810199275,r,l,m,25,3,001,2022-03-07_23h19.49.602,HW1,2022.1.1,59.974870533394146,
30.bmp,"(0, -7)","(10.5, 10.5)",1,65,182,50,,,,,,,,,,,,,,,,,,,,,,,,,,,,,,,,,,,,,275.89901950000785,None,276.3984582000412,276.4483230999904,p,0.661908800015226,276.3984582000412,None,,,,,,,,,,,,,,,,,,,,,810199275,r,l,m,25,3,001,2022-03-07_23h19.49.602,HW1,2022.1.1,59.974870533394146,
0.bmp,"(-2, -6.92)","(7, 7)",1,66,183,5,,,,,,,,,,,,,,,,,,,,,,,,,,,,,,,,,,,,,277.08086710004136,None,277.58078199997544,277.6309065000387,p,0.7369277999969199,277.58078199997544,None,,,,,,,,,,,,,,,,,,,,,810199275,r,l,m,25,3,001,2022-03-07_23h19.49.602,HW1,2022.1.1,59.974870533394146,
30.bmp,"(0, 7)","(10.5, 10.5)",1,67,184,47,,,,,,,,,,,,,,,,,,,,,,,,,,,,,,,,,,,,,278.3466720000142,None,278.8463266999461,278.89632429997437,o,0.575178200029768,278.8463266999461,None,,,,,,,,,,,,,,,,,,,,,810199275,r,l,m,25,3,001,2022-03-07_23h19.49.602,HW1,2022.1.1,59.974870533394146,
70.bmp,"(6.06, -3.5)","(10.5, 10.5)",1,68,185,103,,,,,,,,,,,,,,,,,,,,,,,,,,,,,,,,,,,,,279.44561870000325,None,279.94521789997816,279.9954161000205,p,0.5610327000031248,279.94521789997816,None,,,,,,,,,,,,,,,,,,,,,810199275,r,l,m,25,3,001,2022-03-07_23h19.49.602,HW1,2022.1.1,59.974870533394146,
70.bmp,"(2, -6.92)","(7, 7)",1,69,186,97,,,,,,,,,,,,,,,,,,,,,,,,,,,,,,,,,,,,,280.52811199997086,None,281.02777779998723,281.0775770000182,o,0.5003596000606194,281.02777779998723,None,,,,,,,,,,,,,,,,,,,,,810199275,r,l,m,25,3,001,2022-03-07_23h19.49.602,HW1,2022.1.1,59.974870533394146,
10.bmp,"(4, 0)","(7, 7)",1,70,187,14,,,,,,,,,,,,,,,,,,,,,,,,,,,,,,,,,,,,,281.5600863000145,None,282.06054879992735,282.1100701999385,p,0.5869917999953032,282.06054879992735,None,,,,,,,,,,,,,,,,,,,,,810199275,r,l,m,25,3,001,2022-03-07_23h19.49.602,HW1,2022.1.1,59.974870533394146,
30.bmp,"(0, 0)","(4.375, 4.375)",1,71,188,39,,,,,,,,,,,,,,,,,,,,,,,,,,,,,,,,,,,,,282.67611360002775,None,283.17595599999186,283.2257642999757,p,0.47655750007834285,283.17595599999186,None,,,,,,,,,,,,,,,,,,,,,810199275,r,l,m,25,3,001,2022-03-07_23h19.49.602,HW1,2022.1.1,59.974870533394146,
80.bmp,"(-2, -6.92)","(7, 7)",1,72,189,109,,,,,,,,,,,,,,,,,,,,,,,,,,,,,,,,,,,,,283.6749657000182,None,284.1748436000198,284.22495780000463,o,0.5898031999822706,284.1748436000198,None,,,,,,,,,,,,,,,,,,,,,810199275,r,l,m,25,3,001,2022-03-07_23h19.49.602,HW1,2022.1.1,59.974870533394146,
60.bmp,"(0, 0)","(4.375, 4.375)",1,73,190,78,,,,,,,,,,,,,,,,,,,,,,,,,,,,,,,,,,,,,284.7909573999932,None,285.2905394999543,285.340706899995,p,0.5749754999997094,285.2905394999543,None,,,,,,,,,,,,,,,,,,,,,810199275,r,l,m,25,3,001,2022-03-07_23h19.49.602,HW1,2022.1.1,59.974870533394146,
40.bmp,"(-6.06, 3.5)","(10.5, 10.5)",1,74,191,61,,,,,,,,,,,,,,,,,,,,,,,,,,,,,,,,,,,,,285.889691999997,None,286.3894748999737,286.43903699994553,o,0.5479080000659451,286.3894748999737,None,,,,,,,,,,,,,,,,,,,,,810199275,r,l,m,25,3,001,2022-03-07_23h19.49.602,HW1,2022.1.1,59.974870533394146,
60.bmp,"(-6.06, -3.5)","(10.5, 10.5)",1,75,192,88,,,,,,,,,,,,,,,,,,,,,,,,,,,,,,,,,,,,,286.9559681999963,None,287.45498609996866,287.5050704999594,o,0.42234179994557053,287.45498609996866,None,,,,,,,,,,,,,,,,,,,,,810199275,r,l,m,25,3,001,2022-03-07_23h19.49.602,HW1,2022.1.1,59.974870533394146,
10.bmp,"(-2, 6.92)","(7, 7)",1,76,193,16,,,,,,,,,,,,,,,,,,,,,,,,,,,,,,,,,,,,,287.90496169996914,None,288.40449049999006,288.45428629999515,o,0.4225449999794364,288.40449049999006,None,,,,,,,,,,,,,,,,,,,,,810199275,r,l,m,25,3,001,2022-03-07_23h19.49.602,HW1,2022.1.1,59.974870533394146,
10.bmp,"(6.06, 3.5)","(10.5, 10.5)",1,77,194,20,,,,,,,,,,,,,,,,,,,,,,,,,,,,,,,,,,,,,288.8539966000244,None,289.35366549994797,289.4037563999882,p,0.3611784001113847,289.35366549994797,None,,,,,,,,,,,,,,,,,,,,,810199275,r,l,m,25,3,001,2022-03-07_23h19.49.602,HW1,2022.1.1,59.974870533394146,
0.bmp,"(4, 0)","(7, 7)",1,78,195,1,,,,,,,,,,,,,,,,,,,,,,,,,,,,,,,,,,,,,289.73655439994764,None,290.23653320001904,290.2863170999335,o,0.6007184000918642,290.23653320001904,None,,,,,,,,,,,,,,,,,,,,,810199275,r,l,m,25,3,001,2022-03-07_23h19.49.602,HW1,2022.1.1,59.974870533394146,
10.bmp,"(-6.06, -3.5)","(10.5, 10.5)",1,79,196,23,,,,,,,,,,,,,,,,,,,,,,,,,,,,,,,,,,,,,290.86896330001764,None,291.3687510000309,291.4186820000177,p,1.0766685999697074,291.3687510000309,None,,,,,,,,,,,,,,,,,,,,,810199275,r,l,m,25,3,001,2022-03-07_23h19.49.602,HW1,2022.1.1,59.974870533394146,
20.bmp,"(6.06, 3.5)","(10.5, 10.5)",1,80,197,33,,,,,,,,,,,,,,,,,,,,,,,,,,,,,,,,,,,,,292.46774550003465,None,292.96708319999743,293.0175235000206,o,0.7405262999236584,292.96708319999743,None,,,,,,,,,,,,,,,,,,,,,810199275,r,l,m,25,3,001,2022-03-07_23h19.49.602,HW1,2022.1.1,59.974870533394146,
10.bmp,"(0, 7)","(10.5, 10.5)",1,81,198,21,,,,,,,,,,,,,,,,,,,,,,,,,,,,,,,,,,,,,293.73314150003716,None,294.23251130001154,294.2826507999562,o,0.5690487999236211,294.23251130001154,None,,,,,,,,,,,,,,,,,,,,,810199275,r,l,m,25,3,001,2022-03-07_23h19.49.602,HW1,2022.1.1,59.974870533394146,
0.bmp,"(0, -7)","(10.5, 10.5)",1,82,199,11,,,,,,,,,,,,,,,,,,,,,,,,,,,,,,,,,,,,,294.8319905999815,None,295.3319072999293,295.3817015000386,p,0.5390114999609068,295.3319072999293,None,,,,,,,,,,,,,,,,,,,,,810199275,r,l,m,25,3,001,2022-03-07_23h19.49.602,HW1,2022.1.1,59.974870533394146,
20.bmp,"(6.06, -3.5)","(10.5, 10.5)",1,83,200,38,,,,,,,,,,,,,,,,,,,,,,,,,,,,,,,,,,,,,295.89791009994224,None,296.39762940001674,296.447432499961,o,0.7218750000465661,296.39762940001674,None,,,,,,,,,,,,,,,,,,,,,810199275,r,l,m,25,3,001,2022-03-07_23h19.49.602,HW1,2022.1.1,59.974870533394146,
30.bmp,"(6.06, 3.5)","(10.5, 10.5)",1,84,201,46,,,,,,,,,,,,,,,,,,,,,,,,,,,,,,,,,,,,,297.1467179999454,None,297.64648989995476,297.6964433999965,o,0.5848839998943731,297.64648989995476,None,,,,,,,,,,,,,,,,,,,,,810199275,r,l,m,25,3,001,2022-03-07_23h19.49.602,HW1,2022.1.1,59.974870533394146,
40.bmp,"(-2, 6.92)","(7, 7)",1,85,202,55,,,,,,,,,,,,,,,,,,,,,,,,,,,,,,,,,,,,,298.2627303999616,None,298.76205369993113,298.8119991000276,o,0.580061300075613,298.76205369993113,None,,,,,,,,,,,,,,,,,,,,,810199275,r,l,m,25,3,001,2022-03-07_23h19.49.602,HW1,2022.1.1,59.974870533394146,
80.bmp,"(0, 7)","(10.5, 10.5)",1,86,203,112,,,,,,,,,,,,,,,,,,,,,,,,,,,,,,,,,,,,,299.36141240003053,None,299.86117589997593,299.91121249995194,o,0.554832199937664,299.86117589997593,None,,,,,,,,,,,,,,,,,,,,,810199275,r,l,m,25,3,001,2022-03-07_23h19.49.602,HW1,2022.1.1,59.974870533394146,
50.bmp,"(0, -7)","(10.5, 10.5)",1,87,204,76,,,,,,,,,,,,,,,,,,,,,,,,,,,,,,,,,,,,,300.4440227999585,None,300.9435581000289,300.9934008999262,p,0.6133078000275418,300.9435581000289,None,,,,,,,,,,,,,,,,,,,,,810199275,r,l,m,25,3,001,2022-03-07_23h19.49.602,HW1,2022.1.1,59.974870533394146,
80.bmp,"(6.06, -3.5)","(10.5, 10.5)",1,88,205,116,,,,,,,,,,,,,,,,,,,,,,,,,,,,,,,,,,,,,301.57604179996997,None,302.07584960001986,302.1259514000267,p,0.5712398999603465,302.07584960001986,None,,,,,,,,,,,,,,,,,,,,,810199275,r,l,m,25,3,001,2022-03-07_23h19.49.602,HW1,2022.1.1,59.974870533394146,
0.bmp,"(0, 7)","(10.5, 10.5)",1,89,206,8,,,,,,,,,,,,,,,,,,,,,,,,,,,,,,,,,,,,,302.67565510002896,None,303.17481220001355,303.22504519997165,o,0.5404202999779955,303.17481220001355,None,,,,,,,,,,,,,,,,,,,,,810199275,r,l,m,25,3,001,2022-03-07_23h19.49.602,HW1,2022.1.1,59.974870533394146,
60.bmp,"(-6.06, 3.5)","(10.5, 10.5)",1,90,207,87,,,,,,,,,,,,,,,,,,,,,,,,,,,,,,,,,,,,,303.74140940001234,None,304.24066779995337,304.29054439999163,o,0.5645327999955043,304.24066779995337,None,,,,,,,,,,,,,,,,,,,,,810199275,r,l,m,25,3,001,2022-03-07_23h19.49.602,HW1,2022.1.1,59.974870533394146,
60.bmp,"(0, -7)","(10.5, 10.5)",1,91,208,89,,,,,,,,,,,,,,,,,,,,,,,,,,,,,,,,,,,,,304.8234319000039,None,305.32284759997856,305.37266540003475,o,0.4589024999877438,305.32284759997856,None,,,,,,,,,,,,,,,,,,,,,810199275,r,l,m,25,3,001,2022-03-07_23h19.49.602,HW1,2022.1.1,59.974870533394146,
0.bmp,"(-6.06, 3.5)","(10.5, 10.5)",1,92,209,9,,,,,,,,,,,,,,,,,,,,,,,,,,,,,,,,,,,,,305.8058302999707,None,306.3051829999313,306.35551909997594,p,0.6413070000708103,306.3051829999313,None,,,,,,,,,,,,,,,,,,,,,810199275,r,l,m,25,3,001,2022-03-07_23h19.49.602,HW1,2022.1.1,59.974870533394146,
10.bmp,"(-2, -6.92)","(7, 7)",1,93,210,18,,,,,,,,,,,,,,,,,,,,,,,,,,,,,,,,,,,,,306.9716592000332,None,307.4711032999912,307.5212788999779,o,0.5215287000173703,307.4711032999912,None,,,,,,,,,,,,,,,,,,,,,810199275,r,l,m,25,3,001,2022-03-07_23h19.49.602,HW1,2022.1.1,59.974870533394146,
30.bmp,"(2, -6.92)","(7, 7)",1,94,211,45,,,,,,,,,,,,,,,,,,,,,,,,,,,,,,,,,,,,,308.0210420000367,None,308.5369546000147,308.5868696999969,p,0.4729698000010103,308.5369546000147,None,,,,,,,,,,,,,,,,,,,,,810199275,r,l,m,25,3,001,2022-03-07_23h19.49.602,HW1,2022.1.1,59.974870533394146,
40.bmp,"(-4, 0)","(7, 7)",1,95,212,56,,,,,,,,,,,,,,,,,,,,,,,,,,,,,,,,,,,,,309.03688130003866,None,309.53614290000405,309.5860024000285,o,0.4638253999873996,309.53614290000405,None,,,,,,,,,,,,,,,,,,,,,810199275,r,l,m,25,3,001,2022-03-07_23h19.49.602,HW1,2022.1.1,59.974870533394146,
20.bmp,"(2, 6.92)","(7, 7)",1,96,213,28,,,,,,,,,,,,,,,,,,,,,,,,,,,,,,,,,,,,,310.0192218000302,None,310.51827579992823,310.5681909000268,o,0.4515368000138551,310.51827579992823,None,,,,,,,,,,,,,,,,,,,,,810199275,r,l,m,25,3,001,2022-03-07_23h19.49.602,HW1,2022.1.1,59.974870533394146,
40.bmp,"(2, 6.92)","(7, 7)",1,97,214,54,,,,,,,,,,,,,,,,,,,,,,,,,,,,,,,,,,,,,311.00155869999435,None,311.5009849999333,311.5508921999717,o,0.46109479991719127,311.5009849999333,None,,,,,,,,,,,,,,,,,,,,,810199275,r,l,m,25,3,001,2022-03-07_23h19.49.602,HW1,2022.1.1,59.974870533394146,
10.bmp,"(2, 6.92)","(7, 7)",1,98,215,15,,,,,,,,,,,,,,,,,,,,,,,,,,,,,,,,,,,,,311.9839631000068,None,312.48355729994364,312.5334754999494,o,0.41780880000442266,312.48355729994364,None,,,,,,,,,,,,,,,,,,,,,810199275,r,l,m,25,3,001,2022-03-07_23h19.49.602,HW1,2022.1.1,59.974870533394146,
60.bmp,"(-4, 0)","(7, 7)",1,99,216,82,,,,,,,,,,,,,,,,,,,,,,,,,,,,,,,,,,,,,312.9334980000276,None,313.4324737000279,313.4827931999462,p,0.7458698999835178,313.4324737000279,None,,,,,,,,,,,,,,,,,,,,,810199275,r,l,m,25,3,001,2022-03-07_23h19.49.602,HW1,2022.1.1,59.974870533394146,
20.bmp,"(-2, 6.92)","(7, 7)",1,100,217,29,,,,,,,,,,,,,,,,,,,,,,,,,,,,,,,,,,,,,314.19863100000657,None,314.69835139997303,314.7482952999417,o,0.45501819998025894,314.69835139997303,None,,,,,,,,,,,,,,,,,,,,,810199275,r,l,m,25,3,001,2022-03-07_23h19.49.602,HW1,2022.1.1,59.974870533394146,
40.bmp,"(0, 0)","(4.375, 4.375)",1,101,218,52,,,,,,,,,,,,,,,,,,,,,,,,,,,,,,,,,,,,,315.18123430002015,None,315.68065009999555,315.7306438999949,p,0.666875800001435,315.68065009999555,None,,,,,,,,,,,,,,,,,,,,,810199275,r,l,m,25,3,001,2022-03-07_23h19.49.602,HW1,2022.1.1,59.974870533394146,
80.bmp,"(6.06, 3.5)","(10.5, 10.5)",1,102,219,111,,,,,,,,,,,,,,,,,,,,,,,,,,,,,,,,,,,,,316.3801338999765,None,316.87960680003744,316.9296105999965,o,0.6476328000426292,316.87960680003744,None,,,,,,,,,,,,,,,,,,,,,810199275,r,l,m,25,3,001,2022-03-07_23h19.49.602,HW1,2022.1.1,59.974870533394146,
0.bmp,"(2, 6.92)","(7, 7)",1,103,220,2,,,,,,,,,,,,,,,,,,,,,,,,,,,,,,,,,,,,,317.54567309992854,None,318.0447992000263,318.09546730003785,p,0.5996660999953747,318.0447992000263,None,,,,,,,,,,,,,,,,,,,,,810199275,r,l,m,25,3,001,2022-03-07_23h19.49.602,HW1,2022.1.1,59.974870533394146,
0.bmp,"(2, -6.92)","(7, 7)",1,104,221,6,,,,,,,,,,,,,,,,,,,,,,,,,,,,,,,,,,,,,318.6614761999808,None,319.1611716999905,319.21082459995523,o,0.49738980003166944,319.1611716999905,None,,,,,,,,,,,,,,,,,,,,,810199275,r,l,m,25,3,001,2022-03-07_23h19.49.602,HW1,2022.1.1,59.974870533394146,
60.bmp,"(-2, -6.92)","(7, 7)",1,105,222,83,,,,,,,,,,,,,,,,,,,,,,,,,,,,,,,,,,,,,319.6768802999286,None,320.176724000019,320.2267526999349,o,0.4588083000853658,320.176724000019,None,,,,,,,,,,,,,,,,,,,,,810199275,r,l,m,25,3,001,2022-03-07_23h19.49.602,HW1,2022.1.1,59.974870533394146,
80.bmp,"(2, -6.92)","(7, 7)",1,106,223,110,,,,,,,,,,,,,,,,,,,,,,,,,,,,,,,,,,,,,320.6596278999932,None,321.1593068999937,321.2094579000259,o,0.4733514999970794,321.1593068999937,None,,,,,,,,,,,,,,,,,,,,,810199275,r,l,m,25,3,001,2022-03-07_23h19.49.602,HW1,2022.1.1,59.974870533394146,
60.bmp,"(2, 6.92)","(7, 7)",1,107,224,80,,,,,,,,,,,,,,,,,,,,,,,,,,,,,,,,,,,,,321.65892459999304,None,322.1585049999412,322.20838610001374,o,0.4109949000412598,322.1585049999412,None,,,,,,,,,,,,,,,,,,,,,810199275,r,l,m,25,3,001,2022-03-07_23h19.49.602,HW1,2022.1.1,59.974870533394146,
50.bmp,"(-2, -6.92)","(7, 7)",1,108,225,70,,,,,,,,,,,,,,,,,,,,,,,,,,,,,,,,,,,,,322.5915088999318,None,323.0907537000021,323.14105490001384,p,0.5683366000885144,323.0907537000021,None,,,,,,,,,,,,,,,,,,,,,810199275,r,l,m,25,3,001,2022-03-07_23h19.49.602,HW1,2022.1.1,59.974870533394146,
0.bmp,"(-2, 6.92)","(7, 7)",1,109,226,3,,,,,,,,,,,,,,,,,,,,,,,,,,,,,,,,,,,,,323.69057149998844,None,324.1898941999534,324.2396012999816,o,0.49305239995010197,324.1898941999534,None,,,,,,,,,,,,,,,,,,,,,810199275,r,l,m,25,3,001,2022-03-07_23h19.49.602,HW1,2022.1.1,59.974870533394146,
60.bmp,"(2, -6.92)","(7, 7)",1,110,227,84,,,,,,,,,,,,,,,,,,,,,,,,,,,,,,,,,,,,,324.70634439995047,None,325.2056018000003,325.2558478999417,o,0.6507817999226972,325.2056018000003,None,,,,,,,,,,,,,,,,,,,,,810199275,r,l,m,25,3,001,2022-03-07_23h19.49.602,HW1,2022.1.1,59.974870533394146,
70.bmp,"(6.06, 3.5)","(10.5, 10.5)",1,111,228,98,,,,,,,,,,,,,,,,,,,,,,,,,,,,,,,,,,,,,325.88842899992596,None,326.38775659992825,326.4378987000091,p,0.877664600033313,326.38775659992825,None,,,,,,,,,,,,,,,,,,,,,810199275,r,l,m,25,3,001,2022-03-07_23h19.49.602,HW1,2022.1.1,59.974870533394146,
70.bmp,"(-2, -6.92)","(7, 7)",1,112,229,96,,,,,,,,,,,,,,,,,,,,,,,,,,,,,,,,,,,,,327.2872955999337,None,327.7868560999632,327.8368621999398,o,0.603994800010696,327.7868560999632,None,,,,,,,,,,,,,,,,,,,,,810199275,r,l,m,25,3,001,2022-03-07_23h19.49.602,HW1,2022.1.1,59.974870533394146,
0.bmp,"(6.06, -3.5)","(10.5, 10.5)",1,113,230,12,,,,,,,,,,,,,,,,,,,,,,,,,,,,,,,,,,,,,328.41949639993254,None,328.9193947999738,328.96914800000377,o,0.7758611999452114,328.9193947999738,None,,,,,,,,,,,,,,,,,,,,,810199275,r,l,m,25,3,001,2022-03-07_23h19.49.602,HW1,2022.1.1,59.974870533394146,
70.bmp,"(4, 0)","(7, 7)",1,114,231,92,,,,,,,,,,,,,,,,,,,,,,,,,,,,,,,,,,,,,329.7183984000003,None,330.2181202999782,330.26786899997387,p,1.2365392999490723,330.2181202999782,None,,,,,,,,,,,,,,,,,,,,,810199275,r,l,m,25,3,001,2022-03-07_23h19.49.602,HW1,2022.1.1,59.974870533394146,
50.bmp,"(4, 0)","(7, 7)",1,115,232,66,,,,,,,,,,,,,,,,,,,,,,,,,,,,,,,,,,,,,331.4836336999433,None,331.98296009993646,332.0334816999966,p,1.102319800062105,331.98296009993646,None,,,,,,,,,,,,,,,,,,,,,810199275,r,l,m,25,3,001,2022-03-07_23h19.49.602,HW1,2022.1.1,59.974870533394146,
10.bmp,"(-4, 0)","(7, 7)",1,116,233,17,,,,,,,,,,,,,,,,,,,,,,,,,,,,,,,,,,,,,333.1151062999852,None,333.61495089996606,333.6651110999519,p,0.6624813999515027,333.61495089996606,None,,,,,,,,,,,,,,,,,,,,,810199275,r,l,m,25,3,001,2022-03-07_23h19.49.602,HW1,2022.1.1,59.974870533394146,
,,,,,,,,,,,,,,,,,,,,,,,,,,,,,,,,,,,,,,,,,,,,,,,,,,,334.29725810000673,None,space,47.85266819992103,334.29725810000673,None,,,,,,,,,,,,,,,810199275,r,l,m,25,3,001,2022-03-07_23h19.49.602,HW1,2022.1.1,59.974870533394146,
,,,,,,,,,,,,,,,,,,,,,,,,,,,,,,,,,,,,,,,,,,,,,,,,,,,,,,,,,382.17260649998207,None,space,13.202970999991521,382.17260649998207,None,,,,,,,,,810199275,r,l,m,25,3,001,2022-03-07_23h19.49.602,HW1,2022.1.1,59.974870533394146,
40.bmp,"(2, -6.92)","(7, 7)",,,,,0,0,0,58,,,,,,,,,,,,,,,,,,,,,,,,,,,,,,,,,395.41470950003713,None,,,,,,,,,,,,,,,,,,,395.9102038999554,395.9606566999573,q,1.3951386000262573,395.9102038999554,None,,,810199275,r,l,m,25,3,001,2022-03-07_23h19.49.602,HW1,2022.1.1,59.974870533394146,
80.bmp,"(0, 7)","(10.5, 10.5)",,,,,0,1,1,112,,,,,,,,,,,,,,,,,,,,,,,,,,,,,,,,,397.3261863000225,None,,,,,,,,,,,,,,,,,,,397.8254474999849,397.87533569999505,q,0.5204438000218943,397.8254474999849,None,,,810199275,r,l,m,25,3,001,2022-03-07_23h19.49.602,HW1,2022.1.1,59.974870533394146,
70.bmp,"(0, -7)","(10.5, 10.5)",,,,,0,2,2,102,,,,,,,,,,,,,,,,,,,,,,,,,,,,,,,,,398.3751189999748,None,,,,,,,,,,,,,,,,,,,398.87471300002653,398.92464069998823,q,0.40537050005514175,398.87471300002653,None,,,810199275,r,l,m,25,3,001,2022-03-07_23h19.49.602,HW1,2022.1.1,59.974870533394146,
60.bmp,"(6.06, -3.5)","(10.5, 10.5)",,,,,0,3,3,90,,,,,,,,,,,,,,,,,,,,,,,,,,,,,,,,,399.30781999998726,None,,,,,,,,,,,,,,,,,,,399.80727749993093,399.85734899993986,w,0.5950827000197023,399.80727749993093,None,,,810199275,r,l,m,25,3,001,2022-03-07_23h19.49.602,HW1,2022.1.1,59.974870533394146,
20.bmp,"(0, 0)","(4.375, 4.375)",,,,,0,4,4,26,,,,,,,,,,,,,,,,,,,,,,,,,,,,,,,,,400.42314079997595,None,,,,,,,,,,,,,,,,,,,400.92321069992613,400.9728406999493,w,0.5357595999957994,400.92321069992613,None,,,810199275,r,l,m,25,3,001,2022-03-07_23h19.49.602,HW1,2022.1.1,59.974870533394146,
60.bmp,"(2, -6.92)","(7, 7)",,,,,0,5,5,84,,,,,,,,,,,,,,,,,,,,,,,,,,,,,,,,,401.48896959994454,None,,,,,,,,,,,,,,,,,,,401.988946700003,402.0381309000077,w,0.4321369999088347,401.988946700003,None,,,810199275,r,l,m,25,3,001,2022-03-07_23h19.49.602,HW1,2022.1.1,59.974870533394146,
70.bmp,"(2, -6.92)","(7, 7)",,,,,0,6,6,97,,,,,,,,,,,,,,,,,,,,,,,,,,,,,,,,,402.4380097000394,None,,,,,,,,,,,,,,,,,,,402.93811719992664,402.9878902999917,w,0.6542421000776812,402.93811719992664,None,,,810199275,r,l,m,25,3,001,2022-03-07_23h19.49.602,HW1,2022.1.1,59.974870533394146,
20.bmp,"(-6.06, 3.5)","(10.5, 10.5)",,,,,0,7,7,35,,,,,,,,,,,,,,,,,,,,,,,,,,,,,,,,,403.6207365000155,None,,,,,,,,,,,,,,,,,,,404.12004680000246,404.17014159995597,w,0.7233428999315947,404.12004680000246,None,,,810199275,r,l,m,25,3,001,2022-03-07_23h19.49.602,HW1,2022.1.1,59.974870533394146,
0.bmp,"(-6.06, 3.5)","(10.5, 10.5)",,,,,0,8,8,9,,,,,,,,,,,,,,,,,,,,,,,,,,,,,,,,,404.86977280001156,None,,,,,,,,,,,,,,,,,,,405.3690371999983,405.419001000002,w,0.4581440999172628,405.3690371999983,None,,,810199275,r,l,m,25,3,001,2022-03-07_23h19.49.602,HW1,2022.1.1,59.974870533394146,
50.bmp,"(-6.06, 3.5)","(10.5, 10.5)",,,,,0,9,9,74,,,,,,,,,,,,,,,,,,,,,,,,,,,,,,,,,405.85203399998136,None,,,,,,,,,,,,,,,,,,,406.3515091999434,406.40129419998266,w,0.3766085000243038,406.3515091999434,None,,,810199275,r,l,m,25,3,001,2022-03-07_23h19.49.602,HW1,2022.1.1,59.974870533394146,
30.bmp,"(4, 0)","(7, 7)",,,,,0,10,10,40,,,,,,,,,,,,,,,,,,,,,,,,,,,,,,,,,406.75144689995795,None,,,,,,,,,,,,,,,,,,,407.250839299988,407.3008061000146,w,0.6355277999537066,407.250839299988,None,,,810199275,r,l,m,25,3,001,2022-03-07_23h19.49.602,HW1,2022.1.1,59.974870533394146,
80.bmp,"(2, -6.92)","(7, 7)",,,,,0,11,11,110,,,,,,,,,,,,,,,,,,,,,,,,,,,,,,,,,407.9168391999556,None,,,,,,,,,,,,,,,,,,,408.41659109992906,408.46613469999284,q,0.6498211000580341,408.41659109992906,None,,,810199275,r,l,m,25,3,001,2022-03-07_23h19.49.602,HW1,2022.1.1,59.974870533394146,
60.bmp,"(0, -7)","(10.5, 10.5)",,,,,0,12,12,89,,,,,,,,,,,,,,,,,,,,,,,,,,,,,,,,,409.0826865999261,None,,,,,,,,,,,,,,,,,,,409.5823100999696,409.6322124999715,w,0.8443514999235049,409.5823100999696,None,,,810199275,r,l,m,25,3,001,2022-03-07_23h19.49.602,HW1,2022.1.1,59.974870533394146,
50.bmp,"(2, 6.92)","(7, 7)",,,,,0,13,13,67,,,,,,,,,,,,,,,,,,,,,,,,,,,,,,,,,410.4479769000318,None,,,,,,,,,,,,,,,,,,,410.9476040999871,410.99761830002535,q,0.7070760000497103,410.9476040999871,None,,,810199275,r,l,m,25,3,001,2022-03-07_23h19.49.602,HW1,2022.1.1,59.974870533394146,
20.bmp,"(-6.06, -3.5)","(10.5, 10.5)",,,,,0,14,14,36,,,,,,,,,,,,,,,,,,,,,,,,,,,,,,,,,411.6804201999912,None,,,,,,,,,,,,,,,,,,,412.1800712000113,412.22972659999505,w,0.6197695999871939,412.1800712000113,None,,,810199275,r,l,m,25,3,001,2022-03-07_23h19.49.602,HW1,2022.1.1,59.974870533394146,
0.bmp,"(0, -7)","(10.5, 10.5)",,,,,0,15,15,11,,,,,,,,,,,,,,,,,,,,,,,,,,,,,,,,,412.829082799959,None,,,,,,,,,,,,,,,,,,,413.3287522000028,413.37883880001027,q,0.8684185999445617,413.3287522000028,None,,,810199275,r,l,m,25,3,001,2022-03-07_23h19.49.602,HW1,2022.1.1,59.974870533394146,
40.bmp,"(4, 0)","(7, 7)",,,,,0,16,16,53,,,,,,,,,,,,,,,,,,,,,,,,,,,,,,,,,414.22794350003824,None,,,,,,,,,,,,,,,,,,,414.7275774999289,414.77771409996785,q,0.544369800016284,414.7275774999289,None,,,810199275,r,l,m,25,3,001,2022-03-07_23h19.49.602,HW1,2022.1.1,59.974870533394146,
30.bmp,"(0, 7)","(10.5, 10.5)",,,,,0,17,17,47,,,,,,,,,,,,,,,,,,,,,,,,,,,,,,,,,415.2935409999918,None,,,,,,,,,,,,,,,,,,,415.793517199927,415.8429138000356,w,0.7109336999710649,415.793517199927,None,,,810199275,r,l,m,25,3,001,2022-03-07_23h19.49.602,HW1,2022.1.1,59.974870533394146,
80.bmp,"(0, -7)","(10.5, 10.5)",,,,,0,18,18,115,,,,,,,,,,,,,,,,,,,,,,,,,,,,,,,,,416.5260029999772,None,,,,,,,,,,,,,,,,,,,417.0255113999592,417.07552780001424,q,0.6905630000401288,417.0255113999592,None,,,810199275,r,l,m,25,3,001,2022-03-07_23h19.49.602,HW1,2022.1.1,59.974870533394146,
40.bmp,"(2, 6.92)","(7, 7)",,,,,0,19,19,54,,,,,,,,,,,,,,,,,,,,,,,,,,,,,,,,,417.74105359998066,None,,,,,,,,,,,,,,,,,,,418.2409366000211,418.2906807999825,q,1.3762690000003204,418.2409366000211,None,,,810199275,r,l,m,25,3,001,2022-03-07_23h19.49.602,HW1,2022.1.1,59.974870533394146,
50.bmp,"(-2, 6.92)","(7, 7)",,,,,0,20,20,68,,,,,,,,,,,,,,,,,,,,,,,,,,,,,,,,,419.6398130999878,None,,,,,,,,,,,,,,,,,,,420.13946370000485,420.18923050002195,q,0.5042213998967782,420.13946370000485,None,,,810199275,r,l,m,25,3,001,2022-03-07_23h19.49.602,HW1,2022.1.1,59.974870533394146,
60.bmp,"(6.06, 3.5)","(10.5, 10.5)",,,,,0,21,21,85,,,,,,,,,,,,,,,,,,,,,,,,,,,,,,,,,420.67247640003916,None,,,,,,,,,,,,,,,,,,,421.17192270001397,421.22219350002706,w,0.6051568000111729,421.17192270001397,None,,,810199275,r,l,m,25,3,001,2022-03-07_23h19.49.602,HW1,2022.1.1,59.974870533394146,
10.bmp,"(-4, 0)","(7, 7)",,,,,0,22,22,17,,,,,,,,,,,,,,,,,,,,,,,,,,,,,,,,,421.80467650003266,None,,,,,,,,,,,,,,,,,,,422.3040874999715,422.35414810001384,w,0.6932959000114352,422.3040874999715,None,,,810199275,r,l,m,25,3,001,2022-03-07_23h19.49.602,HW1,2022.1.1,59.974870533394146,
10.bmp,"(0, -7)","(10.5, 10.5)",,,,,0,23,23,24,,,,,,,,,,,,,,,,,,,,,,,,,,,,,,,,,423.0202496999409,None,,,,,,,,,,,,,,,,,,,423.51996089995373,423.5698111000238,w,0.55050640006084,423.51996089995373,None,,,810199275,r,l,m,25,3,001,2022-03-07_23h19.49.602,HW1,2022.1.1,59.974870533394146,
10.bmp,"(2, 6.92)","(7, 7)",,,,,0,24,24,15,,,,,,,,,,,,,,,,,,,,,,,,,,,,,,,,,424.1025610000361,None,,,,,,,,,,,,,,,,,,,424.6022873999318,424.65223060001153,q,0.6197953999508172,424.6022873999318,None,,,810199275,r,l,m,25,3,001,2022-03-07_23h19.49.602,HW1,2022.1.1,59.974870533394146,
80.bmp,"(6.06, -3.5)","(10.5, 10.5)",,,,,0,25,25,116,,,,,,,,,,,,,,,,,,,,,,,,,,,,,,,,,425.25189299997874,None,,,,,,,,,,,,,,,,,,,425.7511417999631,425.80138239997905,q,0.7718749999767169,425.7511417999631,None,,,810199275,r,l,m,25,3,001,2022-03-07_23h19.49.602,HW1,2022.1.1,59.974870533394146,
0.bmp,"(-4, 0)","(7, 7)",,,,,0,26,26,4,,,,,,,,,,,,,,,,,,,,,,,,,,,,,,,,,426.55064679996576,None,,,,,,,,,,,,,,,,,,,427.049755099928,427.0997476000339,w,0.6758081000298262,427.049755099928,None,,,810199275,r,l,m,25,3,001,2022-03-07_23h19.49.602,HW1,2022.1.1,59.974870533394146,
60.bmp,"(4, 0)","(7, 7)",,,,,0,27,27,79,,,,,,,,,,,,,,,,,,,,,,,,,,,,,,,,,427.74957169999834,None,,,,,,,,,,,,,,,,,,,428.2492168999743,428.29919099994004,q,0.9413595999358222,428.2492168999743,None,,,810199275,r,l,m,25,3,001,2022-03-07_23h19.49.602,HW1,2022.1.1,59.974870533394146,
70.bmp,"(-4, 0)","(7, 7)",,,,,0,28,28,95,,,,,,,,,,,,,,,,,,,,,,,,,,,,,,,,,429.21494790003635,None,,,,,,,,,,,,,,,,,,,429.71453060000204,429.7648073999444,q,0.5476833001011983,429.71453060000204,None,,,810199275,r,l,m,25,3,001,2022-03-07_23h19.49.602,HW1,2022.1.1,59.974870533394146,
40.bmp,"(0, 7)","(10.5, 10.5)",,,,,0,29,29,60,,,,,,,,,,,,,,,,,,,,,,,,,,,,,,,,,430.28077509999275,None,,,,,,,,,,,,,,,,,,,430.78049459995236,430.83013929997105,q,0.51579670002684,430.78049459995236,None,,,810199275,r,l,m,25,3,001,2022-03-07_23h19.49.602,HW1,2022.1.1,59.974870533394146,
20.bmp,"(6.06, -3.5)","(10.5, 10.5)",,,,,0,30,30,38,,,,,,,,,,,,,,,,,,,,,,,,,,,,,,,,,431.3131561999908,None,,,,,,,,,,,,,,,,,,,431.81233560002875,431.86278850003146,q,0.493806799990125,431.81233560002875,None,,,810199275,r,l,m,25,3,001,2022-03-07_23h19.49.602,HW1,2022.1.1,59.974870533394146,
30.bmp,"(0, 0)","(4.375, 4.375)",,,,,0,31,31,39,,,,,,,,,,,,,,,,,,,,,,,,,,,,,,,,,432.32873990002554,None,,,,,,,,,,,,,,,,,,,432.82853049994446,432.878173999954,w,0.7747020999668166,432.82853049994446,None,,,810199275,r,l,m,25,3,001,2022-03-07_23h19.49.602,HW1,2022.1.1,59.974870533394146,
80.bmp,"(-4, 0)","(7, 7)",,,,,0,32,32,108,,,,,,,,,,,,,,,,,,,,,,,,,,,,,,,,,433.6276951000327,None,,,,,,,,,,,,,,,,,,,434.12717729993165,434.1771933999844,w,0.4975399000104517,434.12717729993165,None,,,810199275,r,l,m,25,3,001,2022-03-07_23h19.49.602,HW1,2022.1.1,59.974870533394146,
60.bmp,"(-4, 0)","(7, 7)",,,,,0,33,33,82,,,,,,,,,,,,,,,,,,,,,,,,,,,,,,,,,434.6435446999967,None,,,,,,,,,,,,,,,,,,,435.1432481999509,435.1930078000296,w,0.43912160000763834,435.1432481999509,None,,,810199275,r,l,m,25,3,001,2022-03-07_23h19.49.602,HW1,2022.1.1,59.974870533394146,
10.bmp,"(-2, 6.92)","(7, 7)",,,,,0,34,34,16,,,,,,,,,,,,,,,,,,,,,,,,,,,,,,,,,435.6093113999814,None,,,,,,,,,,,,,,,,,,,436.1086204999592,436.1584383000154,q,0.646015000063926,436.1086204999592,None,,,810199275,r,l,m,25,3,001,2022-03-07_23h19.49.602,HW1,2022.1.1,59.974870533394146,
10.bmp,"(6.06, 3.5)","(10.5, 10.5)",,,,,0,35,35,20,,,,,,,,,,,,,,,,,,,,,,,,,,,,,,,,,436.7748963999329,None,,,,,,,,,,,,,,,,,,,437.2746215999359,437.32468479999807,q,0.6496354000410065,437.2746215999359,None,,,810199275,r,l,m,25,3,001,2022-03-07_23h19.49.602,HW1,2022.1.1,59.974870533394146,
0.bmp,"(6.06, -3.5)","(10.5, 10.5)",,,,,0,36,36,12,,,,,,,,,,,,,,,,,,,,,,,,,,,,,,,,,437.94065679993946,None,,,,,,,,,,,,,,,,,,,438.4399207000388,438.4897486999398,w,0.6940918000182137,438.4399207000388,None,,,810199275,r,l,m,25,3,001,2022-03-07_23h19.49.602,HW1,2022.1.1,59.974870533394146,
40.bmp,"(0, 0)","(4.375, 4.375)",,,,,0,37,37,52,,,,,,,,,,,,,,,,,,,,,,,,,,,,,,,,,439.15643329999875,None,,,,,,,,,,,,,,,,,,,439.65572849998716,439.70599079993553,w,0.5166253000497818,439.65572849998716,None,,,810199275,r,l,m,25,3,001,2022-03-07_23h19.49.602,HW1,2022.1.1,59.974870533394146,
20.bmp,"(-2, 6.92)","(7, 7)",,,,,0,38,38,29,,,,,,,,,,,,,,,,,,,,,,,,,,,,,,,,,440.1886819000356,None,,,,,,,,,,,,,,,,,,,440.68814490002114,440.73779079993255,q,0.7076337999897078,440.68814490002114,None,,,810199275,r,l,m,25,3,001,2022-03-07_23h19.49.602,HW1,2022.1.1,59.974870533394146,
50.bmp,"(6.06, 3.5)","(10.5, 10.5)",,,,,0,39,39,72,,,,,,,,,,,,,,,,,,,,,,,,,,,,,,,,,441.42090379993897,None,,,,,,,,,,,,,,,,,,,441.9204067999963,441.9703190999571,w,0.9037577999988571,441.9204067999963,None,,,810199275,r,l,m,25,3,001,2022-03-07_23h19.49.602,HW1,2022.1.1,59.974870533394146,
30.bmp,"(-2, -6.92)","(7, 7)",,,,,0,40,40,44,,,,,,,,,,,,,,,,,,,,,,,,,,,,,,,,,442.8530058999313,None,,,,,,,,,,,,,,,,,,,443.3525539999828,443.4026249999879,w,0.6935020999517292,443.3525539999828,None,,,810199275,r,l,m,25,3,001,2022-03-07_23h19.49.602,HW1,2022.1.1,59.974870533394146,
50.bmp,"(-4, 0)","(7, 7)",,,,,0,41,41,69,,,,,,,,,,,,,,,,,,,,,,,,,,,,,,,,,444.0686205000384,None,,,,,,,,,,,,,,,,,,,444.56824829999823,444.6181641999865,q,0.42601019993890077,444.56824829999823,None,,,810199275,r,l,m,25,3,001,2022-03-07_23h19.49.602,HW1,2022.1.1,59.974870533394146,
30.bmp,"(2, 6.92)","(7, 7)",,,,,0,42,42,41,,,,,,,,,,,,,,,,,,,,,,,,,,,,,,,,,445.0174675999442,None,,,,,,,,,,,,,,,,,,,445.5172156000044,445.56755619996693,q,0.5777828999562189,445.5172156000044,None,,,810199275,r,l,m,25,3,001,2022-03-07_23h19.49.602,HW1,2022.1.1,59.974870533394146,
20.bmp,"(2, -6.92)","(7, 7)",,,,,0,43,43,32,,,,,,,,,,,,,,,,,,,,,,,,,,,,,,,,,446.11684199993033,None,,,,,,,,,,,,,,,,,,,446.61658429994714,446.66633469995577,w,0.9325098999543115,446.61658429994714,None,,,810199275,r,l,m,25,3,001,2022-03-07_23h19.49.602,HW1,2022.1.1,59.974870533394146,
80.bmp,"(-6.06, -3.5)","(10.5, 10.5)",,,,,0,44,44,114,,,,,,,,,,,,,,,,,,,,,,,,,,,,,,,,,447.5653849999653,None,,,,,,,,,,,,,,,,,,,448.06506099994294,448.11511439993046,q,0.8471478000283241,448.06506099994294,None,,,810199275,r,l,m,25,3,001,2022-03-07_23h19.49.602,HW1,2022.1.1,59.974870533394146,
40.bmp,"(-2, -6.92)","(7, 7)",,,,,0,45,45,57,,,,,,,,,,,,,,,,,,,,,,,,,,,,,,,,,448.9312304999912,None,,,,,,,,,,,,,,,,,,,449.4303701999597,449.4805739999283,w,0.6782763000810519,449.4303701999597,None,,,810199275,r,l,m,25,3,001,2022-03-07_23h19.49.602,HW1,2022.1.1,59.974870533394146,
40.bmp,"(0, -7)","(10.5, 10.5)",,,,,0,46,46,63,,,,,,,,,,,,,,,,,,,,,,,,,,,,,,,,,450.129837699933,None,,,,,,,,,,,,,,,,,,,450.62973089993466,450.679437099956,w,1.2686196999857202,450.62973089993466,None,,,810199275,r,l,m,25,3,001,2022-03-07_23h19.49.602,HW1,2022.1.1,59.974870533394146,
60.bmp,"(-2, 6.92)","(7, 7)",,,,,0,47,47,81,,,,,,,,,,,,,,,,,,,,,,,,,,,,,,,,,451.9283381999703,None,,,,,,,,,,,,,,,,,,,452.4281779000303,452.4781512999907,w,0.5934249999700114,452.4281779000303,None,,,810199275,r,l,m,25,3,001,2022-03-07_23h19.49.602,HW1,2022.1.1,59.974870533394146,
60.bmp,"(0, 0)","(4.375, 4.375)",,,,,0,48,48,78,,,,,,,,,,,,,,,,,,,,,,,,,,,,,,,,,453.0439098000061,None,,,,,,,,,,,,,,,,,,,453.5435950999381,453.5938412999967,w,0.5776648999890313,453.5435950999381,None,,,810199275,r,l,m,25,3,001,2022-03-07_23h19.49.602,HW1,2022.1.1,59.974870533394146,
50.bmp,"(0, 7)","(10.5, 10.5)",,,,,0,49,49,73,,,,,,,,,,,,,,,,,,,,,,,,,,,,,,,,,454.1431410999503,None,,,,,,,,,,,,,,,,,,,454.6426757000154,454.6924899999285,q,0.5670209000818431,454.6426757000154,None,,,810199275,r,l,m,25,3,001,2022-03-07_23h19.49.602,HW1,2022.1.1,59.974870533394146,
50.bmp,"(0, 0)","(4.375, 4.375)",,,,,0,50,50,65,,,,,,,,,,,,,,,,,,,,,,,,,,,,,,,,,455.2423951999517,None,,,,,,,,,,,,,,,,,,,455.74170899996534,455.7917527999962,w,0.7565611000172794,455.74170899996534,None,,,810199275,r,l,m,25,3,001,2022-03-07_23h19.49.602,HW1,2022.1.1,59.974870533394146,
60.bmp,"(2, 6.92)","(7, 7)",,,,,0,51,51,80,,,,,,,,,,,,,,,,,,,,,,,,,,,,,,,,,456.5245893000392,None,,,,,,,,,,,,,,,,,,,457.0240404999349,457.0741091000382,q,0.5002724999794737,457.0240404999349,None,,,810199275,r,l,m,25,3,001,2022-03-07_23h19.49.602,HW1,2022.1.1,59.974870533394146,
30.bmp,"(2, -6.92)","(7, 7)",,,,,0,52,52,45,,,,,,,,,,,,,,,,,,,,,,,,,,,,,,,,,457.55674599995837,None,,,,,,,,,,,,,,,,,,,458.056343400036,458.1064039999619,q,0.7923721000552177,458.056343400036,None,,,810199275,r,l,m,25,3,001,2022-03-07_23h19.49.602,HW1,2022.1.1,59.974870533394146,
40.bmp,"(-6.06, 3.5)","(10.5, 10.5)",,,,,0,53,53,61,,,,,,,,,,,,,,,,,,,,,,,,,,,,,,,,,458.87253809999675,None,,,,,,,,,,,,,,,,,,,459.37212780001573,459.4218079999555,q,0.47332160000223666,459.37212780001573,None,,,810199275,r,l,m,25,3,001,2022-03-07_23h19.49.602,HW1,2022.1.1,59.974870533394146,
70.bmp,"(6.06, 3.5)","(10.5, 10.5)",,,,,0,54,54,98,,,,,,,,,,,,,,,,,,,,,,,,,,,,,,,,,459.8713463000022,None,,,,,,,,,,,,,,,,,,,460.3711184000131,460.42093130003195,q,0.485225300071761,460.3711184000131,None,,,810199275,r,l,m,25,3,001,2022-03-07_23h19.49.602,HW1,2022.1.1,59.974870533394146,
30.bmp,"(-2, 6.92)","(7, 7)",,,,,0,55,55,42,,,,,,,,,,,,,,,,,,,,,,,,,,,,,,,,,460.8870039000176,None,,,,,,,,,,,,,,,,,,,461.38696000003256,461.4368181999307,q,0.5945753999985754,461.38696000003256,None,,,810199275,r,l,m,25,3,001,2022-03-07_23h19.49.602,HW1,2022.1.1,59.974870533394146,
80.bmp,"(-6.06, 3.5)","(10.5, 10.5)",,,,,0,56,56,113,,,,,,,,,,,,,,,,,,,,,,,,,,,,,,,,,462.0028610000154,None,,,,,,,,,,,,,,,,,,,462.50252089998685,462.5524303999264,q,0.5481092999689281,462.50252089998685,None,,,810199275,r,l,m,25,3,001,2022-03-07_23h19.49.602,HW1,2022.1.1,59.974870533394146,
80.bmp,"(-2, -6.92)","(7, 7)",,,,,0,57,57,109,,,,,,,,,,,,,,,,,,,,,,,,,,,,,,,,,463.0684441999765,None,,,,,,,,,,,,,,,,,,,463.5681469999254,463.61801169998944,w,0.6199557000072673,463.5681469999254,None,,,810199275,r,l,m,25,3,001,2022-03-07_23h19.49.602,HW1,2022.1.1,59.974870533394146,
60.bmp,"(0, 7)","(10.5, 10.5)",,,,,0,58,58,86,,,,,,,,,,,,,,,,,,,,,,,,,,,,,,,,,464.21788879996166,None,,,,,,,,,,,,,,,,,,,464.71711009996943,464.76699379994534,q,0.5083471999969333,464.71711009996943,None,,,810199275,r,l,m,25,3,001,2022-03-07_23h19.49.602,HW1,2022.1.1,59.974870533394146,
10.bmp,"(2, -6.92)","(7, 7)",,,,,0,59,59,19,,,,,,,,,,,,,,,,,,,,,,,,,,,,,,,,,465.2499223999912,None,,,,,,,,,,,,,,,,,,,465.74959419993684,465.7998311999254,q,0.771962400060147,465.74959419993684,None,,,810199275,r,l,m,25,3,001,2022-03-07_23h19.49.602,HW1,2022.1.1,59.974870533394146,
0.bmp,"(-2, 6.92)","(7, 7)",,,,,0,60,60,3,,,,,,,,,,,,,,,,,,,,,,,,,,,,,,,,,466.5491776999552,None,,,,,,,,,,,,,,,,,,,467.0485251999926,467.0984056999441,q,0.6496728000929579,467.0485251999926,None,,,810199275,r,l,m,25,3,001,2022-03-07_23h19.49.602,HW1,2022.1.1,59.974870533394146,
50.bmp,"(6.06, -3.5)","(10.5, 10.5)",,,,,0,61,61,77,,,,,,,,,,,,,,,,,,,,,,,,,,,,,,,,,467.7311963000102,None,,,,,,,,,,,,,,,,,,,468.23108669999056,468.2807158000069,w,0.7251825000857934,468.23108669999056,None,,,810199275,r,l,m,25,3,001,2022-03-07_23h19.49.602,HW1,2022.1.1,59.974870533394146,
40.bmp,"(-2, 6.92)","(7, 7)",,,,,0,62,62,55,,,,,,,,,,,,,,,,,,,,,,,,,,,,,,,,,468.9802249999484,None,,,,,,,,,,,,,,,,,,,469.47963059996255,469.52992440003436,q,0.5360338999889791,469.47963059996255,None,,,810199275,r,l,m,25,3,001,2022-03-07_23h19.49.602,HW1,2022.1.1,59.974870533394146,
30.bmp,"(-6.06, 3.5)","(10.5, 10.5)",,,,,0,63,63,48,,,,,,,,,,,,,,,,,,,,,,,,,,,,,,,,,470.0457507999381,None,,,,,,,,,,,,,,,,,,,470.5456675000023,470.5952904999722,q,0.5691926999716088,470.5456675000023,None,,,810199275,r,l,m,25,3,001,2022-03-07_23h19.49.602,HW1,2022.1.1,59.974870533394146,
10.bmp,"(0, 7)","(10.5, 10.5)",,,,,0,64,64,21,,,,,,,,,,,,,,,,,,,,,,,,,,,,,,,,,471.1449511999963,None,,,,,,,,,,,,,,,,,,,471.6445432000328,471.69456860003993,q,0.5524431000230834,471.6445432000328,None,,,810199275,r,l,m,25,3,001,2022-03-07_23h19.49.602,HW1,2022.1.1,59.974870533394146,
70.bmp,"(0, 7)","(10.5, 10.5)",,,,,0,65,65,99,,,,,,,,,,,,,,,,,,,,,,,,,,,,,,,,,472.22714890004136,None,,,,,,,,,,,,,,,,,,,472.72697890002746,472.7768725999631,q,0.47756310005206615,472.72697890002746,None,,,810199275,r,l,m,25,3,001,2022-03-07_23h19.49.602,HW1,2022.1.1,59.974870533394146,
0.bmp,"(4, 0)","(7, 7)",,,,,0,66,66,1,,,,,,,,,,,,,,,,,,,,,,,,,,,,,,,,,473.2265269999625,None,,,,,,,,,,,,,,,,,,,473.7261779999826,473.77595369995106,w,0.6653295999858528,473.7261779999826,None,,,810199275,r,l,m,25,3,001,2022-03-07_23h19.49.602,HW1,2022.1.1,59.974870533394146,
80.bmp,"(-2, 6.92)","(7, 7)",,,,,0,67,67,107,,,,,,,,,,,,,,,,,,,,,,,,,,,,,,,,,474.40844589995686,None,,,,,,,,,,,,,,,,,,,474.90841329994146,474.95841840002686,q,0.932147299987264,474.90841329994146,None,,,810199275,r,l,m,25,3,001,2022-03-07_23h19.49.602,HW1,2022.1.1,59.974870533394146,
30.bmp,"(-4, 0)","(7, 7)",,,,,0,68,68,43,,,,,,,,,,,,,,,,,,,,,,,,,,,,,,,,,475.85759579995647,None,,,,,,,,,,,,,,,,,,,476.37348109995946,476.42328520002775,w,0.5571154999779537,476.37348109995946,None,,,810199275,r,l,m,25,3,001,2022-03-07_23h19.49.602,HW1,2022.1.1,59.974870533394146,
30.bmp,"(0, -7)","(10.5, 10.5)",,,,,0,69,69,50,,,,,,,,,,,,,,,,,,,,,,,,,,,,,,,,,476.9565389000345,None,,,,,,,,,,,,,,,,,,,477.4561832000036,477.50604370003566,w,0.8490499000763521,477.4561832000036,None,,,810199275,r,l,m,25,3,001,2022-03-07_23h19.49.602,HW1,2022.1.1,59.974870533394146,
50.bmp,"(2, -6.92)","(7, 7)",,,,,0,70,70,71,,,,,,,,,,,,,,,,,,,,,,,,,,,,,,,,,478.3220907000359,None,,,,,,,,,,,,,,,,,,,478.82124009996187,478.8711064000381,w,0.7553588999435306,478.82124009996187,None,,,810199275,r,l,m,25,3,001,2022-03-07_23h19.49.602,HW1,2022.1.1,59.974870533394146,
70.bmp,"(-2, -6.92)","(7, 7)",,,,,0,71,71,96,,,,,,,,,,,,,,,,,,,,,,,,,,,,,,,,,479.60412319994066,None,,,,,,,,,,,,,,,,,,,480.1042001999449,480.1537474000361,w,0.7490232000127435,480.1042001999449,None,,,810199275,r,l,m,25,3,001,2022-03-07_23h19.49.602,HW1,2022.1.1,59.974870533394146,
0.bmp,"(-6.06, -3.5)","(10.5, 10.5)",,,,,0,72,72,10,,,,,,,,,,,,,,,,,,,,,,,,,,,,,,,,,480.86931380000897,None,,,,,,,,,,,,,,,,,,,481.3694323999807,481.41960949997883,w,0.6863563000224531,481.3694323999807,None,,,810199275,r,l,m,25,3,001,2022-03-07_23h19.49.602,HW1,2022.1.1,59.974870533394146,
70.bmp,"(2, 6.92)","(7, 7)",,,,,0,73,73,93,,,,,,,,,,,,,,,,,,,,,,,,,,,,,,,,,482.0856346000219,None,,,,,,,,,,,,,,,,,,,482.5850542000262,482.63496499997564,q,0.5436900000786409,482.5850542000262,None,,,810199275,r,l,m,25,3,001,2022-03-07_23h19.49.602,HW1,2022.1.1,59.974870533394146,
70.bmp,"(-6.06, -3.5)","(10.5, 10.5)",,,,,0,74,74,101,,,,,,,,,,,,,,,,,,,,,,,,,,,,,,,,,483.15076260000933,None,,,,,,,,,,,,,,,,,,,483.6509559999686,483.70093549997546,w,0.6549063000129536,483.6509559999686,None,,,810199275,r,l,m,25,3,001,2022-03-07_23h19.49.602,HW1,2022.1.1,59.974870533394146,
0.bmp,"(-2, -6.92)","(7, 7)",,,,,0,75,75,5,,,,,,,,,,,,,,,,,,,,,,,,,,,,,,,,,484.3336678999476,None,,,,,,,,,,,,,,,,,,,484.83311130001675,484.88303719996475,q,0.7235479999799281,484.83311130001675,None,,,810199275,r,l,m,25,3,001,2022-03-07_23h19.49.602,HW1,2022.1.1,59.974870533394146,
10.bmp,"(6.06, -3.5)","(10.5, 10.5)",,,,,0,76,76,25,,,,,,,,,,,,,,,,,,,,,,,,,,,,,,,,,485.58190490002744,None,,,,,,,,,,,,,,,,,,,486.08171699999366,486.13216419995297,w,0.5921912000048906,486.08171699999366,None,,,810199275,r,l,m,25,3,001,2022-03-07_23h19.49.602,HW1,2022.1.1,59.974870533394146,
30.bmp,"(6.06, 3.5)","(10.5, 10.5)",,,,,0,77,77,46,,,,,,,,,,,,,,,,,,,,,,,,,,,,,,,,,486.6979092999827,None,,,,,,,,,,,,,,,,,,,487.19741579995025,487.2474129999755,q,0.6507723999675363,487.19741579995025,None,,,810199275,r,l,m,25,3,001,2022-03-07_23h19.49.602,HW1,2022.1.1,59.974870533394146,
10.bmp,"(-6.06, -3.5)","(10.5, 10.5)",,,,,0,78,78,23,,,,,,,,,,,,,,,,,,,,,,,,,,,,,,,,,487.88007169996854,None,,,,,,,,,,,,,,,,,,,488.3802270999877,488.4297846999252,w,0.6095055999467149,488.3802270999877,None,,,810199275,r,l,m,25,3,001,2022-03-07_23h19.49.602,HW1,2022.1.1,59.974870533394146,
30.bmp,"(6.06, -3.5)","(10.5, 10.5)",,,,,0,79,79,51,,,,,,,,,,,,,,,,,,,,,,,,,,,,,,,,,489.01278280001134,None,,,,,,,,,,,,,,,,,,,489.51216519996524,489.56180030002724,w,0.5543607999570668,489.51216519996524,None,,,810199275,r,l,m,25,3,001,2022-03-07_23h19.49.602,HW1,2022.1.1,59.974870533394146,
20.bmp,"(0, -7)","(10.5, 10.5)",,,,,0,80,80,37,,,,,,,,,,,,,,,,,,,,,,,,,,,,,,,,,490.09528210002463,None,,,,,,,,,,,,,,,,,,,490.6113425999647,490.6613456000341,w,0.5050798000302166,490.6113425999647,None,,,810199275,r,l,m,25,3,001,2022-03-07_23h19.49.602,HW1,2022.1.1,59.974870533394146,
10.bmp,"(-6.06, 3.5)","(10.5, 10.5)",,,,,0,81,81,22,,,,,,,,,,,,,,,,,,,,,,,,,,,,,,,,,491.144365199958,None,,,,,,,,,,,,,,,,,,,491.6436936999671,491.69391499995254,w,0.5335143000120297,491.6436936999671,None,,,810199275,r,l,m,25,3,001,2022-03-07_23h19.49.602,HW1,2022.1.1,59.974870533394146,
70.bmp,"(4, 0)","(7, 7)",,,,,0,82,82,92,,,,,,,,,,,,,,,,,,,,,,,,,,,,,,,,,492.20966649998445,None,,,,,,,,,,,,,,,,,,,492.70976460003294,492.75932129996363,q,0.7268203999847174,492.70976460003294,None,,,810199275,r,l,m,25,3,001,2022-03-07_23h19.49.602,HW1,2022.1.1,59.974870533394146,
80.bmp,"(2, 6.92)","(7, 7)",,,,,0,83,83,106,,,,,,,,,,,,,,,,,,,,,,,,,,,,,,,,,493.4589062000159,None,,,,,,,,,,,,,,,,,,,493.9583244000096,494.0082639999455,w,0.7353215999901295,493.9583244000096,None,,,810199275,r,l,m,25,3,001,2022-03-07_23h19.49.602,HW1,2022.1.1,59.974870533394146,
20.bmp,"(2, 6.92)","(7, 7)",,,,,0,84,84,28,,,,,,,,,,,,,,,,,,,,,,,,,,,,,,,,,494.7243599999929,None,,,,,,,,,,,,,,,,,,,495.224064799957,495.27388630004134,w,0.7134136999957263,495.224064799957,None,,,810199275,r,l,m,25,3,001,2022-03-07_23h19.49.602,HW1,2022.1.1,59.974870533394146,
60.bmp,"(-6.06, -3.5)","(10.5, 10.5)",,,,,0,85,85,88,,,,,,,,,,,,,,,,,,,,,,,,,,,,,,,,,495.95656389999203,None,,,,,,,,,,,,,,,,,,,496.4562990999548,496.5060445999261,q,0.5949717999901623,496.4562990999548,None,,,810199275,r,l,m,25,3,001,2022-03-07_23h19.49.602,HW1,2022.1.1,59.974870533394146,
70.bmp,"(-6.06, 3.5)","(10.5, 10.5)",,,,,0,86,86,100,,,,,,,,,,,,,,,,,,,,,,,,,,,,,,,,,497.0725093999645,None,,,,,,,,,,,,,,,,,,,497.5722171999514,497.62170469993725,q,0.6183117999462411,497.5722171999514,None,,,810199275,r,l,m,25,3,001,2022-03-07_23h19.49.602,HW1,2022.1.1,59.974870533394146,
70.bmp,"(6.06, -3.5)","(10.5, 10.5)",,,,,0,87,87,103,,,,,,,,,,,,,,,,,,,,,,,,,,,,,,,,,498.2212673999602,None,,,,,,,,,,,,,,,,,,,498.72120929998346,498.7710828999989,q,0.6916117999935523,498.72120929998346,None,,,810199275,r,l,m,25,3,001,2022-03-07_23h19.49.602,HW1,2022.1.1,59.974870533394146,
10.bmp,"(4, 0)","(7, 7)",,,,,0,88,88,14,,,,,,,,,,,,,,,,,,,,,,,,,,,,,,,,,499.43709289992694,None,,,,,,,,,,,,,,,,,,,499.93646210001316,499.9866783999605,w,0.6865101999137551,499.93646210001316,None,,,810199275,r,l,m,25,3,001,2022-03-07_23h19.49.602,HW1,2022.1.1,59.974870533394146,
70.bmp,"(0, 0)","(4.375, 4.375)",,,,,0,89,89,91,,,,,,,,,,,,,,,,,,,,,,,,,,,,,,,,,500.65245850000065,None,,,,,,,,,,,,,,,,,,,501.1521455999464,501.2016636999324,w,0.6008570999838412,501.1521455999464,None,,,810199275,r,l,m,25,3,001,2022-03-07_23h19.49.602,HW1,2022.1.1,59.974870533394146,
20.bmp,"(4, 0)","(7, 7)",,,,,0,90,90,27,,,,,,,,,,,,,,,,,,,,,,,,,,,,,,,,,501.78480729996227,None,,,,,,,,,,,,,,,,,,,502.2843189999694,502.33443259994965,w,0.5834832999389619,502.2843189999694,None,,,810199275,r,l,m,25,3,001,2022-03-07_23h19.49.602,HW1,2022.1.1,59.974870533394146,
40.bmp,"(6.06, 3.5)","(10.5, 10.5)",,,,,0,91,91,59,,,,,,,,,,,,,,,,,,,,,,,,,,,,,,,,,502.88391009997576,None,,,,,,,,,,,,,,,,,,,503.38303199992515,503.4333668999607,w,0.511779300053604,503.38303199992515,None,,,810199275,r,l,m,25,3,001,2022-03-07_23h19.49.602,HW1,2022.1.1,59.974870533394146,
50.bmp,"(4, 0)","(7, 7)",,,,,0,92,92,66,,,,,,,,,,,,,,,,,,,,,,,,,,,,,,,,,503.9164254999487,None,,,,,,,,,,,,,,,,,,,504.41604579996783,504.46586380002555,w,0.5233604999957606,504.41604579996783,None,,,810199275,r,l,m,25,3,001,2022-03-07_23h19.49.602,HW1,2022.1.1,59.974870533394146,
40.bmp,"(-6.06, -3.5)","(10.5, 10.5)",,,,,0,93,93,62,,,,,,,,,,,,,,,,,,,,,,,,,,,,,,,,,504.9657147999387,None,,,,,,,,,,,,,,,,,,,505.4648976000026,505.5149426999269,w,0.8302604000782594,505.4648976000026,None,,,810199275,r,l,m,25,3,001,2022-03-07_23h19.49.602,HW1,2022.1.1,59.974870533394146,
40.bmp,"(-4, 0)","(7, 7)",,,,,0,94,94,56,,,,,,,,,,,,,,,,,,,,,,,,,,,,,,,,,506.3143523000181,None,,,,,,,,,,,,,,,,,,,506.8140818999382,506.86358819995075,w,0.47620380006264895,506.8140818999382,None,,,810199275,r,l,m,25,3,001,2022-03-07_23h19.49.602,HW1,2022.1.1,59.974870533394146,
20.bmp,"(-2, -6.92)","(7, 7)",,,,,0,95,95,31,,,,,,,,,,,,,,,,,,,,,,,,,,,,,,,,,507.3132492000004,None,,,,,,,,,,,,,,,,,,,507.8126360999886,507.86383349995594,w,0.5093782000476494,507.8126360999886,None,,,810199275,r,l,m,25,3,001,2022-03-07_23h19.49.602,HW1,2022.1.1,59.974870533394146,
0.bmp,"(2, -6.92)","(7, 7)",,,,,0,96,96,6,,,,,,,,,,,,,,,,,,,,,,,,,,,,,,,,,508.3460131000029,None,,,,,,,,,,,,,,,,,,,508.8452987000346,508.89554399996996,w,0.444984000059776,508.8452987000346,None,,,810199275,r,l,m,25,3,001,2022-03-07_23h19.49.602,HW1,2022.1.1,59.974870533394146,
20.bmp,"(0, 7)","(10.5, 10.5)",,,,,0,97,97,34,,,,,,,,,,,,,,,,,,,,,,,,,,,,,,,,,509.31139919999987,None,,,,,,,,,,,,,,,,,,,509.8112770000007,509.86137659999076,q,0.33912900008726865,509.8112770000007,None,,,810199275,r,l,m,25,3,001,2022-03-07_23h19.49.602,HW1,2022.1.1,59.974870533394146,
80.bmp,"(4, 0)","(7, 7)",,,,,0,98,98,105,,,,,,,,,,,,,,,,,,,,,,,,,,,,,,,,,510.1772326999344,None,,,,,,,,,,,,,,,,,,,510.67720559996087,510.7271204999415,q,0.4373310999944806,510.67720559996087,None,,,810199275,r,l,m,25,3,001,2022-03-07_23h19.49.602,HW1,2022.1.1,59.974870533394146,
80.bmp,"(0, 0)","(4.375, 4.375)",,,,,0,99,99,104,,,,,,,,,,,,,,,,,,,,,,,,,,,,,,,,,511.1433860999532,None,,,,,,,,,,,,,,,,,,,511.6428452000255,511.69279420003295,q,0.43774570000823587,511.6428452000255,None,,,810199275,r,l,m,25,3,001,2022-03-07_23h19.49.602,HW1,2022.1.1,59.974870533394146,
60.bmp,"(-6.06, 3.5)","(10.5, 10.5)",,,,,0,100,100,87,,,,,,,,,,,,,,,,,,,,,,,,,,,,,,,,,512.1090721000219,None,,,,,,,,,,,,,,,,,,,512.6087942000013,512.6586091000354,q,0.4310573999537155,512.6087942000013,None,,,810199275,r,l,m,25,3,001,2022-03-07_23h19.49.602,HW1,2022.1.1,59.974870533394146,
20.bmp,"(6.06, 3.5)","(10.5, 10.5)",,,,,0,101,101,33,,,,,,,,,,,,,,,,,,,,,,,,,,,,,,,,,513.0582677000202,None,,,,,,,,,,,,,,,,,,,513.5577893999871,513.6078832999337,q,0.504418500000611,513.5577893999871,None,,,810199275,r,l,m,25,3,001,2022-03-07_23h19.49.602,HW1,2022.1.1,59.974870533394146,
30.bmp,"(-6.06, -3.5)","(10.5, 10.5)",,,,,0,102,102,49,,,,,,,,,,,,,,,,,,,,,,,,,,,,,,,,,514.0907616999466,None,,,,,,,,,,,,,,,,,,,514.5899780000327,514.6399259000318,w,0.7846124999923632,514.5899780000327,None,,,810199275,r,l,m,25,3,001,2022-03-07_23h19.49.602,HW1,2022.1.1,59.974870533394146,
10.bmp,"(-2, -6.92)","(7, 7)",,,,,0,103,103,18,,,,,,,,,,,,,,,,,,,,,,,,,,,,,,,,,515.4061936000362,None,,,,,,,,,,,,,,,,,,,515.9059626000235,515.9559468999505,w,0.545722599956207,515.9059626000235,None,,,810199275,r,l,m,25,3,001,2022-03-07_23h19.49.602,HW1,2022.1.1,59.974870533394146,
80.bmp,"(6.06, 3.5)","(10.5, 10.5)",,,,,0,104,104,111,,,,,,,,,,,,,,,,,,,,,,,,,,,,,,,,,516.4719891999848,None,,,,,,,,,,,,,,,,,,,516.9712459000293,517.0215432000114,q,0.6313727999804541,516.9712459000293,None,,,810199275,r,l,m,25,3,001,2022-03-07_23h19.49.602,HW1,2022.1.1,59.974870533394146,
60.bmp,"(-2, -6.92)","(7, 7)",,,,,0,105,105,83,,,,,,,,,,,,,,,,,,,,,,,,,,,,,,,,,517.6209125999594,None,,,,,,,,,,,,,,,,,,,518.1206264999928,518.1706813999917,w,0.5611947999568656,518.1206264999928,None,,,810199275,r,l,m,25,3,001,2022-03-07_23h19.49.602,HW1,2022.1.1,59.974870533394146,
20.bmp,"(-4, 0)","(7, 7)",,,,,0,106,106,30,,,,,,,,,,,,,,,,,,,,,,,,,,,,,,,,,518.703401900013,None,,,,,,,,,,,,,,,,,,,519.2026790999807,519.2528371999506,w,0.6501580999465659,519.2026790999807,None,,,810199275,r,l,m,25,3,001,2022-03-07_23h19.49.602,HW1,2022.1.1,59.974870533394146,
50.bmp,"(0, -7)","(10.5, 10.5)",,,,,0,107,107,76,,,,,,,,,,,,,,,,,,,,,,,,,,,,,,,,,519.869291299954,None,,,,,,,,,,,,,,,,,,,520.3685433999635,520.4188002999872,w,0.5803845999762416,520.3685433999635,None,,,810199275,r,l,m,25,3,001,2022-03-07_23h19.49.602,HW1,2022.1.1,59.974870533394146,
70.bmp,"(-2, 6.92)","(7, 7)",,,,,0,108,108,94,,,,,,,,,,,,,,,,,,,,,,,,,,,,,,,,,520.9683502999833,None,,,,,,,,,,,,,,,,,,,521.4845435000025,521.5345021999674,q,0.5424537999788299,521.4845435000025,None,,,810199275,r,l,m,25,3,001,2022-03-07_23h19.49.602,HW1,2022.1.1,59.974870533394146,
