stim,pos,size,trials.thisRepN,trials.thisTrialN,trials.thisN,trials.thisIndex,trials_2.thisRepN,trials_2.thisTrialN,trials_2.thisN,trials_2.thisIndex,trials_3.thisRepN,trials_3.thisTrialN,trials_3.thisN,trials_3.thisIndex,trials_4.thisRepN,trials_4.thisTrialN,trials_4.thisN,trials_4.thisIndex,trials_5.thisRepN,trials_5.thisTrialN,trials_5.thisN,trials_5.thisIndex,trials_6.thisRepN,trials_6.thisTrialN,trials_6.thisN,trials_6.thisIndex,trials_7.thisRepN,trials_7.thisTrialN,trials_7.thisN,trials_7.thisIndex,trials_8.thisRepN,trials_8.thisTrialN,trials_8.thisN,trials_8.thisIndex,text.started,text.stopped,kbRight.started,kbRight.stopped,key_resp.keys,key_resp.rt,key_resp.started,key_resp.stopped,fix.started,fix.stopped,image.started,image.stopped,key_resp_2.keys,key_resp_2.rt,key_resp_2.started,key_resp_2.stopped,rest_image.started,rest_image.stopped,key_resp_3.keys,key_resp_3.rt,key_resp_3.started,key_resp_3.stopped,kbLeft.started,kbLeft.stopped,key_resp_4.keys,key_resp_4.rt,key_resp_4.started,key_resp_4.stopped,image_2.started,image_2.stopped,key_resp_5.keys,key_resp_5.rt,key_resp_5.started,key_resp_5.stopped,text_2.started,text_2.stopped,sbj,hndns,eye,sex,age,edu,session,date,expName,psychopyVersion,frameRate,
,,,,,,,,,,,,,,,,,,,,,,,,,,,,,,,,,,,70.58232009992935,None,72.54963059991132,None,space,12.12683379999362,72.54963059991132,None,,,,,,,,,,,,,,,,,,,,,,,,,,,,,8101992752,r,r,m,23,3,001,2022-03-07_22h08.46.789,HW1,2022.1.1,60.10485892365922,
60.bmp,"(4, 0)","(7, 7)",0,0,0,79,,,,,,,,,,,,,,,,,,,,,,,,,,,,,,,,,,,,,84.727790899924,None,85.22210070001893,85.27188399992883,p,7.982039300026372,85.22210070001893,None,,,,,,,,,,,,,,,,,,,,,8101992752,r,r,m,23,3,001,2022-03-07_22h08.46.789,HW1,2022.1.1,60.10485892365922,
40.bmp,"(0, -7)","(10.5, 10.5)",0,1,1,63,,,,,,,,,,,,,,,,,,,,,,,,,,,,,,,,,,,,,93.23132829996757,None,93.73111179994885,93.7810657999944,o,0.6388097000308335,93.73111179994885,None,,,,,,,,,,,,,,,,,,,,,8101992752,r,r,m,23,3,001,2022-03-07_22h08.46.789,HW1,2022.1.1,60.10485892365922,
70.bmp,"(0, 0)","(4.375, 4.375)",0,2,2,91,,,,,,,,,,,,,,,,,,,,,,,,,,,,,,,,,,,,,94.39709129999392,None,94.89641029993072,94.94630279997364,p,5.653928500018083,94.89641029993072,None,,,,,,,,,,,,,,,,,,,,,8101992752,r,r,m,23,3,001,2022-03-07_22h08.46.789,HW1,2022.1.1,60.10485892365922,
0.bmp,"(6.06, 3.5)","(10.5, 10.5)",0,3,3,7,,,,,,,,,,,,,,,,,,,,,,,,,,,,,,,,,,,,,100.57523630000651,None,101.0746771999402,101.12454200000502,o,5.024960900074802,101.0746771999402,None,,,,,,,,,,,,,,,,,,,,,8101992752,r,r,m,23,3,001,2022-03-07_22h08.46.789,HW1,2022.1.1,60.10485892365922,
80.bmp,"(0, 7)","(10.5, 10.5)",0,4,4,112,,,,,,,,,,,,,,,,,,,,,,,,,,,,,,,,,,,,,106.11998889991082,None,106.61971529992297,106.66960559994914,p,2.869373800000176,106.61971529992297,None,,,,,,,,,,,,,,,,,,,,,8101992752,r,r,m,23,3,001,2022-03-07_22h08.46.789,HW1,2022.1.1,60.10485892365922,
20.bmp,"(6.06, 3.5)","(10.5, 10.5)",0,5,5,33,,,,,,,,,,,,,,,,,,,,,,,,,,,,,,,,,,,,,109.51734269992448,None,110.01661369996145,110.06684999994468,o,0.5402657999657094,110.01661369996145,None,,,,,,,,,,,,,,,,,,,,,8101992752,r,r,m,23,3,001,2022-03-07_22h08.46.789,HW1,2022.1.1,60.10485892365922,
20.bmp,"(-6.06, -3.5)","(10.5, 10.5)",0,6,6,36,,,,,,,,,,,,,,,,,,,,,,,,,,,,,,,,,,,,,110.58268659992609,None,111.0824685000116,111.13286739995237,p,1.0354476000647992,111.0824685000116,None,,,,,,,,,,,,,,,,,,,,,8101992752,r,r,m,23,3,001,2022-03-07_22h08.46.789,HW1,2022.1.1,60.10485892365922,
80.bmp,"(6.06, 3.5)","(10.5, 10.5)",0,7,7,111,,,,,,,,,,,,,,,,,,,,,,,,,,,,,,,,,,,,,112.14823709998745,None,112.64809609996155,112.69750889996067,o,2.4107775000156835,112.64809609996155,None,,,,,,,,,,,,,,,,,,,,,8101992752,r,r,m,23,3,001,2022-03-07_22h08.46.789,HW1,2022.1.1,60.10485892365922,
60.bmp,"(-6.06, -3.5)","(10.5, 10.5)",0,8,8,88,,,,,,,,,,,,,,,,,,,,,,,,,,,,,,,,,,,,,115.07895899994764,None,115.57892629993148,115.6285950000165,o,1.8460352000547573,115.57892629993148,None,,,,,,,,,,,,,,,,,,,,,8101992752,r,r,m,23,3,001,2022-03-07_22h08.46.789,HW1,2022.1.1,60.10485892365922,
20.bmp,"(2, 6.92)","(7, 7)",0,9,9,28,,,,,,,,,,,,,,,,,,,,,,,,,,,,,,,,,,,,,117.44373719999567,None,117.94307749997824,117.99287640000694,p,1.6550873999949545,117.94307749997824,None,,,,,,,,,,,,,,,,,,,,,8101992752,r,r,m,23,3,001,2022-03-07_22h08.46.789,HW1,2022.1.1,60.10485892365922,
50.bmp,"(0, 0)","(4.375, 4.375)",0,10,10,65,,,,,,,,,,,,,,,,,,,,,,,,,,,,,,,,,,,,,119.62488829996437,None,120.12460979993921,120.17483059992082,o,3.088462400017306,120.12460979993921,None,,,,,,,,,,,,,,,,,,,,,8101992752,r,r,m,23,3,001,2022-03-07_22h08.46.789,HW1,2022.1.1,60.10485892365922,
10.bmp,"(4, 0)","(7, 7)",0,11,11,14,,,,,,,,,,,,,,,,,,,,,,,,,,,,,,,,,,,,,123.23861829994712,None,123.73817679996137,123.78800219995901,p,0.9921665999572724,123.73817679996137,None,,,,,,,,,,,,,,,,,,,,,8101992752,r,r,m,23,3,001,2022-03-07_22h08.46.789,HW1,2022.1.1,60.10485892365922,
0.bmp,"(0, 0)","(4.375, 4.375)",0,12,12,0,,,,,,,,,,,,,,,,,,,,,,,,,,,,,,,,,,,,,124.75389449996874,None,125.25353799993172,125.30358199996408,p,0.9569793000118807,125.25353799993172,None,,,,,,,,,,,,,,,,,,,,,8101992752,r,r,m,23,3,001,2022-03-07_22h08.46.789,HW1,2022.1.1,60.10485892365922,
70.bmp,"(4, 0)","(7, 7)",0,13,13,92,,,,,,,,,,,,,,,,,,,,,,,,,,,,,,,,,,,,,126.23574629996438,None,126.73576740000863,126.78536079998594,p,1.014438100042753,126.73576740000863,None,,,,,,,,,,,,,,,,,,,,,8101992752,r,r,m,23,3,001,2022-03-07_22h08.46.789,HW1,2022.1.1,60.10485892365922,
0.bmp,"(-4, 0)","(7, 7)",0,14,14,4,,,,,,,,,,,,,,,,,,,,,,,,,,,,,,,,,,,,,127.768053399981,None,128.26761470001657,128.31752819998655,o,1.6891094000311568,128.26761470001657,None,,,,,,,,,,,,,,,,,,,,,8101992752,r,r,m,23,3,001,2022-03-07_22h08.46.789,HW1,2022.1.1,60.10485892365922,
60.bmp,"(0, 0)","(4.375, 4.375)",0,15,15,78,,,,,,,,,,,,,,,,,,,,,,,,,,,,,,,,,,,,,129.9829607999418,None,130.48233899998013,130.53208269993775,p,1.2015305999666452,130.48233899998013,None,,,,,,,,,,,,,,,,,,,,,8101992752,r,r,m,23,3,001,2022-03-07_22h08.46.789,HW1,2022.1.1,60.10485892365922,
0.bmp,"(0, -7)","(10.5, 10.5)",0,16,16,11,,,,,,,,,,,,,,,,,,,,,,,,,,,,,,,,,,,,,131.71451610000804,None,132.21414589998312,132.26472610002384,o,1.5486366000259295,132.21414589998312,None,,,,,,,,,,,,,,,,,,,,,8101992752,r,r,m,23,3,001,2022-03-07_22h08.46.789,HW1,2022.1.1,60.10485892365922,
40.bmp,"(6.06, 3.5)","(10.5, 10.5)",0,17,17,59,,,,,,,,,,,,,,,,,,,,,,,,,,,,,,,,,,,,,133.77943819994107,None,134.27847479993943,134.32916490000207,p,2.4976943000219762,134.27847479993943,None,,,,,,,,,,,,,,,,,,,,,8101992752,r,r,m,23,3,001,2022-03-07_22h08.46.789,HW1,2022.1.1,60.10485892365922,
70.bmp,"(-4, 0)","(7, 7)",0,18,18,95,,,,,,,,,,,,,,,,,,,,,,,,,,,,,,,,,,,,,136.7934082999127,None,137.29323710000608,137.3430715999566,p,7.599515300011262,137.29323710000608,None,,,,,,,,,,,,,,,,,,,,,8101992752,r,r,m,23,3,001,2022-03-07_22h08.46.789,HW1,2022.1.1,60.10485892365922,
40.bmp,"(2, 6.92)","(7, 7)",0,19,19,54,,,,,,,,,,,,,,,,,,,,,,,,,,,,,,,,,,,,,144.91999979992397,None,145.41913229995407,145.46891109994613,p,3.069902900024317,145.41913229995407,None,,,,,,,,,,,,,,,,,,,,,8101992752,r,r,m,23,3,001,2022-03-07_22h08.46.789,HW1,2022.1.1,60.10485892365922,
80.bmp,"(-6.06, -3.5)","(10.5, 10.5)",0,20,20,114,,,,,,,,,,,,,,,,,,,,,,,,,,,,,,,,,,,,,148.51618079992477,None,149.01597599999513,149.06625679996796,o,1.457532300031744,149.01597599999513,None,,,,,,,,,,,,,,,,,,,,,8101992752,r,r,m,23,3,001,2022-03-07_22h08.46.789,HW1,2022.1.1,60.10485892365922,
40.bmp,"(-4, 0)","(7, 7)",0,21,21,56,,,,,,,,,,,,,,,,,,,,,,,,,,,,,,,,,,,,,150.49845790001564,None,150.9977492999751,151.04726499994285,o,1.0478774999501184,150.9977492999751,None,,,,,,,,,,,,,,,,,,,,,8101992752,r,r,m,23,3,001,2022-03-07_22h08.46.789,HW1,2022.1.1,60.10485892365922,
20.bmp,"(-6.06, 3.5)","(10.5, 10.5)",0,22,22,35,,,,,,,,,,,,,,,,,,,,,,,,,,,,,,,,,,,,,152.063430899987,None,152.56286099995486,152.6141057999339,p,1.3211365999886766,152.56286099995486,None,,,,,,,,,,,,,,,,,,,,,8101992752,r,r,m,23,3,001,2022-03-07_22h08.46.789,HW1,2022.1.1,60.10485892365922,
10.bmp,"(6.06, 3.5)","(10.5, 10.5)",0,23,23,20,,,,,,,,,,,,,,,,,,,,,,,,,,,,,,,,,,,,,153.911972999922,None,154.41150639997795,154.46116329997312,p,1.0872076000086963,154.41150639997795,None,,,,,,,,,,,,,,,,,,,,,8101992752,r,r,m,23,3,001,2022-03-07_22h08.46.789,HW1,2022.1.1,60.10485892365922,
20.bmp,"(4, 0)","(7, 7)",0,24,24,27,,,,,,,,,,,,,,,,,,,,,,,,,,,,,,,,,,,,,155.52678580000065,None,156.02659069991205,156.07660439994652,p,2.4482238000491634,156.02659069991205,None,,,,,,,,,,,,,,,,,,,,,8101992752,r,r,m,23,3,001,2022-03-07_22h08.46.789,HW1,2022.1.1,60.10485892365922,
70.bmp,"(6.06, 3.5)","(10.5, 10.5)",0,25,25,98,,,,,,,,,,,,,,,,,,,,,,,,,,,,,,,,,,,,,158.4912192999618,None,158.9907013999764,159.04065179999452,p,0.8166664999444038,158.9907013999764,None,,,,,,,,,,,,,,,,,,,,,8101992752,r,r,m,23,3,001,2022-03-07_22h08.46.789,HW1,2022.1.1,60.10485892365922,
10.bmp,"(-6.06, 3.5)","(10.5, 10.5)",0,26,26,22,,,,,,,,,,,,,,,,,,,,,,,,,,,,,,,,,,,,,159.83970100001898,None,160.33977500000037,160.38965099991765,o,0.9011559000937268,160.33977500000037,None,,,,,,,,,,,,,,,,,,,,,8101992752,r,r,m,23,3,001,2022-03-07_22h08.46.789,HW1,2022.1.1,60.10485892365922,
50.bmp,"(4, 0)","(7, 7)",0,27,27,66,,,,,,,,,,,,,,,,,,,,,,,,,,,,,,,,,,,,,161.2722188999178,None,161.77175099996384,161.8214741999982,p,2.0579400000860915,161.77175099996384,None,,,,,,,,,,,,,,,,,,,,,8101992752,r,r,m,23,3,001,2022-03-07_22h08.46.789,HW1,2022.1.1,60.10485892365922,
10.bmp,"(-4, 0)","(7, 7)",0,28,28,17,,,,,,,,,,,,,,,,,,,,,,,,,,,,,,,,,,,,,163.8532653999282,None,164.35251659993082,164.40258599992376,o,0.4925797999603674,164.35251659993082,None,,,,,,,,,,,,,,,,,,,,,8101992752,r,r,m,23,3,001,2022-03-07_22h08.46.789,HW1,2022.1.1,60.10485892365922,
80.bmp,"(2, -6.92)","(7, 7)",0,29,29,110,,,,,,,,,,,,,,,,,,,,,,,,,,,,,,,,,,,,,164.86906850000378,None,165.36839189997409,165.41854149999563,p,0.7028968000086024,165.36839189997409,None,,,,,,,,,,,,,,,,,,,,,8101992752,r,r,m,23,3,001,2022-03-07_22h08.46.789,HW1,2022.1.1,60.10485892365922,
50.bmp,"(-6.06, -3.5)","(10.5, 10.5)",0,30,30,75,,,,,,,,,,,,,,,,,,,,,,,,,,,,,,,,,,,,,166.1011972000124,None,166.60036599996965,166.6508164999541,p,0.4576327999820933,166.60036599996965,None,,,,,,,,,,,,,,,,,,,,,8101992752,r,r,m,23,3,001,2022-03-07_22h08.46.789,HW1,2022.1.1,60.10485892365922,
20.bmp,"(-4, 0)","(7, 7)",0,31,31,30,,,,,,,,,,,,,,,,,,,,,,,,,,,,,,,,,,,,,167.08355059998576,None,167.5830909999786,167.63345710001886,p,2.5406794999726117,167.5830909999786,None,,,,,,,,,,,,,,,,,,,,,8101992752,r,r,m,23,3,001,2022-03-07_22h08.46.789,HW1,2022.1.1,60.10485892365922,
50.bmp,"(6.06, 3.5)","(10.5, 10.5)",0,32,32,72,,,,,,,,,,,,,,,,,,,,,,,,,,,,,,,,,,,,,170.14779439999256,None,170.64707679999992,170.69724969996605,p,1.5071139999199659,170.64707679999992,None,,,,,,,,,,,,,,,,,,,,,8101992752,r,r,m,23,3,001,2022-03-07_22h08.46.789,HW1,2022.1.1,60.10485892365922,
60.bmp,"(6.06, -3.5)","(10.5, 10.5)",0,33,33,90,,,,,,,,,,,,,,,,,,,,,,,,,,,,,,,,,,,,,172.17926070000976,None,172.67856109992135,172.72884120000526,p,3.743219899944961,172.67856109992135,None,,,,,,,,,,,,,,,,,,,,,8101992752,r,r,m,23,3,001,2022-03-07_22h08.46.789,HW1,2022.1.1,60.10485892365922,
80.bmp,"(2, 6.92)","(7, 7)",0,34,34,106,,,,,,,,,,,,,,,,,,,,,,,,,,,,,,,,,,,,,176.4422278999118,None,176.94176239997614,176.9917054999387,p,0.5734647000208497,176.94176239997614,None,,,,,,,,,,,,,,,,,,,,,8101992752,r,r,m,23,3,001,2022-03-07_22h08.46.789,HW1,2022.1.1,60.10485892365922,
50.bmp,"(2, 6.92)","(7, 7)",0,35,35,67,,,,,,,,,,,,,,,,,,,,,,,,,,,,,,,,,,,,,177.54106279998086,None,178.0407529999502,178.09078640001826,p,0.7150157999712974,178.0407529999502,None,,,,,,,,,,,,,,,,,,,,,8101992752,r,r,m,23,3,001,2022-03-07_22h08.46.789,HW1,2022.1.1,60.10485892365922,
10.bmp,"(-2, -6.92)","(7, 7)",0,36,36,18,,,,,,,,,,,,,,,,,,,,,,,,,,,,,,,,,,,,,178.77351309999358,None,179.2730744999135,179.32296139991377,o,0.4007260000798851,179.2730744999135,None,,,,,,,,,,,,,,,,,,,,,8101992752,r,r,m,23,3,001,2022-03-07_22h08.46.789,HW1,2022.1.1,60.10485892365922,
0.bmp,"(6.06, -3.5)","(10.5, 10.5)",0,37,37,12,,,,,,,,,,,,,,,,,,,,,,,,,,,,,,,,,,,,,179.70588289992884,None,180.20519160002004,180.25548920000438,o,0.9164182000095025,180.20519160002004,None,,,,,,,,,,,,,,,,,,,,,8101992752,r,r,m,23,3,001,2022-03-07_22h08.46.789,HW1,2022.1.1,60.10485892365922,
80.bmp,"(6.06, -3.5)","(10.5, 10.5)",0,38,38,116,,,,,,,,,,,,,,,,,,,,,,,,,,,,,,,,,,,,,181.13820059993304,None,181.63773079996463,181.68775799998548,p,1.7085790000855923,181.63773079996463,None,,,,,,,,,,,,,,,,,,,,,8101992752,r,r,m,23,3,001,2022-03-07_22h08.46.789,HW1,2022.1.1,60.10485892365922,
40.bmp,"(-6.06, -3.5)","(10.5, 10.5)",0,39,39,62,,,,,,,,,,,,,,,,,,,,,,,,,,,,,,,,,,,,,183.36934799992014,None,183.8690611999482,183.9188605999807,o,1.3386402000905946,183.8690611999482,None,,,,,,,,,,,,,,,,,,,,,8101992752,r,r,m,23,3,001,2022-03-07_22h08.46.789,HW1,2022.1.1,60.10485892365922,
40.bmp,"(4, 0)","(7, 7)",0,40,40,53,,,,,,,,,,,,,,,,,,,,,,,,,,,,,,,,,,,,,185.23446309997234,None,185.73404060001485,185.78406039997935,o,1.9265444000484422,185.73404060001485,None,,,,,,,,,,,,,,,,,,,,,8101992752,r,r,m,23,3,001,2022-03-07_22h08.46.789,HW1,2022.1.1,60.10485892365922,
80.bmp,"(0, -7)","(10.5, 10.5)",0,41,41,115,,,,,,,,,,,,,,,,,,,,,,,,,,,,,,,,,,,,,187.68243899999652,None,188.18169409991242,188.2319185999222,p,1.1396182000171393,188.18169409991242,None,,,,,,,,,,,,,,,,,,,,,8101992752,r,r,m,23,3,001,2022-03-07_22h08.46.789,HW1,2022.1.1,60.10485892365922,
10.bmp,"(2, -6.92)","(7, 7)",0,42,42,19,,,,,,,,,,,,,,,,,,,,,,,,,,,,,,,,,,,,,189.34784569998737,None,189.84711309999693,189.89716489997227,o,0.9466647000517696,189.84711309999693,None,,,,,,,,,,,,,,,,,,,,,8101992752,r,r,m,23,3,001,2022-03-07_22h08.46.789,HW1,2022.1.1,60.10485892365922,
50.bmp,"(6.06, -3.5)","(10.5, 10.5)",0,43,43,77,,,,,,,,,,,,,,,,,,,,,,,,,,,,,,,,,,,,,190.81300329999067,None,191.3122476999415,191.36219799995888,p,0.9878181999083608,191.3122476999415,None,,,,,,,,,,,,,,,,,,,,,8101992752,r,r,m,23,3,001,2022-03-07_22h08.46.789,HW1,2022.1.1,60.10485892365922,
50.bmp,"(-2, -6.92)","(7, 7)",0,44,44,70,,,,,,,,,,,,,,,,,,,,,,,,,,,,,,,,,,,,,192.32834949996322,None,192.8278333999915,192.87770979991183,o,0.9189439000329003,192.8278333999915,None,,,,,,,,,,,,,,,,,,,,,8101992752,r,r,m,23,3,001,2022-03-07_22h08.46.789,HW1,2022.1.1,60.10485892365922,
0.bmp,"(-2, -6.92)","(7, 7)",0,45,45,5,,,,,,,,,,,,,,,,,,,,,,,,,,,,,,,,,,,,,193.77717639994808,None,194.27652830001898,194.3260782000143,o,0.9496109000174329,194.27652830001898,None,,,,,,,,,,,,,,,,,,,,,8101992752,r,r,m,23,3,001,2022-03-07_22h08.46.789,HW1,2022.1.1,60.10485892365922,
50.bmp,"(-4, 0)","(7, 7)",0,46,46,69,,,,,,,,,,,,,,,,,,,,,,,,,,,,,,,,,,,,,195.24247139994986,None,195.7417932000244,195.79167469998356,o,7.307913199998438,195.7417932000244,None,,,,,,,,,,,,,,,,,,,,,8101992752,r,r,m,23,3,001,2022-03-07_22h08.46.789,HW1,2022.1.1,60.10485892365922,
30.bmp,"(6.06, 3.5)","(10.5, 10.5)",0,47,47,46,,,,,,,,,,,,,,,,,,,,,,,,,,,,,,,,,,,,,203.06894649995957,None,203.56831030000467,203.61833109997679,p,1.2640659000026062,203.56831030000467,None,,,,,,,,,,,,,,,,,,,,,8101992752,r,r,m,23,3,001,2022-03-07_22h08.46.789,HW1,2022.1.1,60.10485892365922,
30.bmp,"(0, -7)","(10.5, 10.5)",0,48,48,50,,,,,,,,,,,,,,,,,,,,,,,,,,,,,,,,,,,,,204.8503627999453,None,205.35029019997455,205.40017099992838,o,1.0104691999731585,205.35029019997455,None,,,,,,,,,,,,,,,,,,,,,8101992752,r,r,m,23,3,001,2022-03-07_22h08.46.789,HW1,2022.1.1,60.10485892365922,
70.bmp,"(-6.06, -3.5)","(10.5, 10.5)",0,49,49,101,,,,,,,,,,,,,,,,,,,,,,,,,,,,,,,,,,,,,206.38283279992174,None,206.88199419993907,206.9318775999127,p,0.7802214999683201,206.88199419993907,None,,,,,,,,,,,,,,,,,,,,,8101992752,r,r,m,23,3,001,2022-03-07_22h08.46.789,HW1,2022.1.1,60.10485892365922,
40.bmp,"(0, 7)","(10.5, 10.5)",0,50,50,60,,,,,,,,,,,,,,,,,,,,,,,,,,,,,,,,,,,,,207.68159179994836,None,208.18114919995423,208.23095789994113,p,0.8989313000347465,208.18114919995423,None,,,,,,,,,,,,,,,,,,,,,8101992752,r,r,m,23,3,001,2022-03-07_22h08.46.789,HW1,2022.1.1,60.10485892365922,
40.bmp,"(-2, 6.92)","(7, 7)",0,51,51,55,,,,,,,,,,,,,,,,,,,,,,,,,,,,,,,,,,,,,209.0968282999238,None,209.5962370999623,209.6465717999963,p,0.7478515999391675,209.5962370999623,None,,,,,,,,,,,,,,,,,,,,,8101992752,r,r,m,23,3,001,2022-03-07_22h08.46.789,HW1,2022.1.1,60.10485892365922,
10.bmp,"(-6.06, -3.5)","(10.5, 10.5)",0,52,52,23,,,,,,,,,,,,,,,,,,,,,,,,,,,,,,,,,,,,,210.36290449998342,None,210.86233059992082,210.9121931999689,o,1.9921339999418706,210.86233059992082,None,,,,,,,,,,,,,,,,,,,,,8101992752,r,r,m,23,3,001,2022-03-07_22h08.46.789,HW1,2022.1.1,60.10485892365922,
20.bmp,"(6.06, -3.5)","(10.5, 10.5)",0,53,53,38,,,,,,,,,,,,,,,,,,,,,,,,,,,,,,,,,,,,,212.87726480001584,None,213.37652579997666,213.42655809991993,p,1.547382100019604,213.37652579997666,None,,,,,,,,,,,,,,,,,,,,,8101992752,r,r,m,23,3,001,2022-03-07_22h08.46.789,HW1,2022.1.1,60.10485892365922,
40.bmp,"(2, -6.92)","(7, 7)",0,54,54,58,,,,,,,,,,,,,,,,,,,,,,,,,,,,,,,,,,,,,214.9418457999127,None,215.44138109998312,215.491527199978,p,1.2051916999043897,215.44138109998312,None,,,,,,,,,,,,,,,,,,,,,8101992752,r,r,m,23,3,001,2022-03-07_22h08.46.789,HW1,2022.1.1,60.10485892365922,
30.bmp,"(6.06, -3.5)","(10.5, 10.5)",0,55,55,51,,,,,,,,,,,,,,,,,,,,,,,,,,,,,,,,,,,,,216.67368799995165,None,217.17329940001946,217.22332849993836,p,0.7084693000651896,217.17329940001946,None,,,,,,,,,,,,,,,,,,,,,8101992752,r,r,m,23,3,001,2022-03-07_22h08.46.789,HW1,2022.1.1,60.10485892365922,
60.bmp,"(2, 6.92)","(7, 7)",0,56,56,80,,,,,,,,,,,,,,,,,,,,,,,,,,,,,,,,,,,,,217.9059460000135,None,218.40556270000525,218.45505320001394,o,0.6581050000386313,218.40556270000525,None,,,,,,,,,,,,,,,,,,,,,8101992752,r,r,m,23,3,001,2022-03-07_22h08.46.789,HW1,2022.1.1,60.10485892365922,
50.bmp,"(0, 7)","(10.5, 10.5)",0,57,57,73,,,,,,,,,,,,,,,,,,,,,,,,,,,,,,,,,,,,,219.08851479995064,None,219.58797330001835,219.6377579999389,o,0.8212530000600964,219.58797330001835,None,,,,,,,,,,,,,,,,,,,,,8101992752,r,r,m,23,3,001,2022-03-07_22h08.46.789,HW1,2022.1.1,60.10485892365922,
60.bmp,"(6.06, 3.5)","(10.5, 10.5)",0,58,58,85,,,,,,,,,,,,,,,,,,,,,,,,,,,,,,,,,,,,,220.4369550999254,None,220.93663619994186,220.98643399996217,p,1.6103848000057042,220.93663619994186,None,,,,,,,,,,,,,,,,,,,,,8101992752,r,r,m,23,3,001,2022-03-07_22h08.46.789,HW1,2022.1.1,60.10485892365922,
80.bmp,"(-2, -6.92)","(7, 7)",0,59,59,109,,,,,,,,,,,,,,,,,,,,,,,,,,,,,,,,,,,,,222.56865809997544,None,223.06806369998958,223.11796099995263,o,1.3950742000015453,223.06806369998958,None,,,,,,,,,,,,,,,,,,,,,8101992752,r,r,m,23,3,001,2022-03-07_22h08.46.789,HW1,2022.1.1,60.10485892365922,
30.bmp,"(-6.06, 3.5)","(10.5, 10.5)",0,60,60,48,,,,,,,,,,,,,,,,,,,,,,,,,,,,,,,,,,,,,224.4835678000236,None,224.9830080999527,225.03319099999499,p,1.3270560000091791,224.9830080999527,None,,,,,,,,,,,,,,,,,,,,,8101992752,r,r,m,23,3,001,2022-03-07_22h08.46.789,HW1,2022.1.1,60.10485892365922,
0.bmp,"(-6.06, -3.5)","(10.5, 10.5)",0,61,61,10,,,,,,,,,,,,,,,,,,,,,,,,,,,,,,,,,,,,,226.33199019997846,None,226.83141179999802,226.8813155000098,o,2.9362037999089807,226.83141179999802,None,,,,,,,,,,,,,,,,,,,,,8101992752,r,r,m,23,3,001,2022-03-07_22h08.46.789,HW1,2022.1.1,60.10485892365922,
60.bmp,"(-6.06, 3.5)","(10.5, 10.5)",0,62,62,87,,,,,,,,,,,,,,,,,,,,,,,,,,,,,,,,,,,,,229.79578349995427,None,230.29504959995393,230.34503670001868,p,0.9440956999314949,230.29504959995393,None,,,,,,,,,,,,,,,,,,,,,8101992752,r,r,m,23,3,001,2022-03-07_22h08.46.789,HW1,2022.1.1,60.10485892365922,
30.bmp,"(2, -6.92)","(7, 7)",0,63,63,45,,,,,,,,,,,,,,,,,,,,,,,,,,,,,,,,,,,,,231.2610902999295,None,231.76050859992392,231.81045300001279,o,0.7348217000253499,231.76050859992392,None,,,,,,,,,,,,,,,,,,,,,8101992752,r,r,m,23,3,001,2022-03-07_22h08.46.789,HW1,2022.1.1,60.10485892365922,
20.bmp,"(0, 7)","(10.5, 10.5)",0,64,64,34,,,,,,,,,,,,,,,,,,,,,,,,,,,,,,,,,,,,,232.52660879993346,None,233.0261535999598,233.0759095000103,p,0.6692231999477372,233.0261535999598,None,,,,,,,,,,,,,,,,,,,,,8101992752,r,r,m,23,3,001,2022-03-07_22h08.46.789,HW1,2022.1.1,60.10485892365922,
0.bmp,"(2, -6.92)","(7, 7)",0,65,65,6,,,,,,,,,,,,,,,,,,,,,,,,,,,,,,,,,,,,,233.72535720001906,None,234.2250993999187,234.27489949995652,o,0.597769399988465,234.2250993999187,None,,,,,,,,,,,,,,,,,,,,,8101992752,r,r,m,23,3,001,2022-03-07_22h08.46.789,HW1,2022.1.1,60.10485892365922,
50.bmp,"(2, -6.92)","(7, 7)",0,66,66,71,,,,,,,,,,,,,,,,,,,,,,,,,,,,,,,,,,,,,234.84138879994862,None,235.34086270001717,235.39049229992088,p,0.5970134999370202,235.34086270001717,None,,,,,,,,,,,,,,,,,,,,,8101992752,r,r,m,23,3,001,2022-03-07_22h08.46.789,HW1,2022.1.1,60.10485892365922,
70.bmp,"(-6.06, 3.5)","(10.5, 10.5)",0,67,67,100,,,,,,,,,,,,,,,,,,,,,,,,,,,,,,,,,,,,,235.95688700000755,None,236.45654409995768,236.50643770000897,o,0.7050670000026003,236.45654409995768,None,,,,,,,,,,,,,,,,,,,,,8101992752,r,r,m,23,3,001,2022-03-07_22h08.46.789,HW1,2022.1.1,60.10485892365922,
0.bmp,"(2, 6.92)","(7, 7)",0,68,68,2,,,,,,,,,,,,,,,,,,,,,,,,,,,,,,,,,,,,,237.18911189993378,None,237.68871929997113,237.73841119999997,p,0.6640655000228435,237.68871929997113,None,,,,,,,,,,,,,,,,,,,,,8101992752,r,r,m,23,3,001,2022-03-07_22h08.46.789,HW1,2022.1.1,60.10485892365922,
40.bmp,"(0, 0)","(4.375, 4.375)",0,69,69,52,,,,,,,,,,,,,,,,,,,,,,,,,,,,,,,,,,,,,238.37131399998907,None,238.87102510000113,238.92086920002475,p,0.6322142999852076,238.87102510000113,None,,,,,,,,,,,,,,,,,,,,,8101992752,r,r,m,23,3,001,2022-03-07_22h08.46.789,HW1,2022.1.1,60.10485892365922,
40.bmp,"(6.06, -3.5)","(10.5, 10.5)",0,70,70,64,,,,,,,,,,,,,,,,,,,,,,,,,,,,,,,,,,,,,239.52036109997425,None,240.0198688999517,240.06995979999192,p,0.8031452000141144,240.0198688999517,None,,,,,,,,,,,,,,,,,,,,,8101992752,r,r,m,23,3,001,2022-03-07_22h08.46.789,HW1,2022.1.1,60.10485892365922,
30.bmp,"(0, 7)","(10.5, 10.5)",0,71,71,47,,,,,,,,,,,,,,,,,,,,,,,,,,,,,,,,,,,,,240.85290169995278,None,241.35205539991148,241.40224189998116,p,1.0540019000181928,241.35205539991148,None,,,,,,,,,,,,,,,,,,,,,8101992752,r,r,m,23,3,001,2022-03-07_22h08.46.789,HW1,2022.1.1,60.10485892365922,
50.bmp,"(-2, 6.92)","(7, 7)",0,72,72,68,,,,,,,,,,,,,,,,,,,,,,,,,,,,,,,,,,,,,242.43468980002217,None,242.93378989992198,242.98411969991866,p,0.6534281000494957,242.93378989992198,None,,,,,,,,,,,,,,,,,,,,,8101992752,r,r,m,23,3,001,2022-03-07_22h08.46.789,HW1,2022.1.1,60.10485892365922,
70.bmp,"(0, -7)","(10.5, 10.5)",0,73,73,102,,,,,,,,,,,,,,,,,,,,,,,,,,,,,,,,,,,,,243.61703520000447,None,244.1163703999482,244.166580399964,p,0.6105878000380471,244.1163703999482,None,,,,,,,,,,,,,,,,,,,,,8101992752,r,r,m,23,3,001,2022-03-07_22h08.46.789,HW1,2022.1.1,60.10485892365922,
0.bmp,"(-2, 6.92)","(7, 7)",0,74,74,3,,,,,,,,,,,,,,,,,,,,,,,,,,,,,,,,,,,,,244.74926019995473,None,245.24969399999827,245.29854889994022,p,0.38188080000691116,245.24969399999827,None,,,,,,,,,,,,,,,,,,,,,8101992752,r,r,m,23,3,001,2022-03-07_22h08.46.789,HW1,2022.1.1,60.10485892365922,
70.bmp,"(2, -6.92)","(7, 7)",0,75,75,97,,,,,,,,,,,,,,,,,,,,,,,,,,,,,,,,,,,,,245.64906660001725,None,246.14783689996693,246.197842799942,p,0.5074727999744937,246.14783689996693,None,,,,,,,,,,,,,,,,,,,,,8101992752,r,r,m,23,3,001,2022-03-07_22h08.46.789,HW1,2022.1.1,60.10485892365922,
50.bmp,"(0, -7)","(10.5, 10.5)",0,76,76,76,,,,,,,,,,,,,,,,,,,,,,,,,,,,,,,,,,,,,246.68079879996367,None,247.18035149993375,247.23058269999456,p,0.5163739999989048,247.18035149993375,None,,,,,,,,,,,,,,,,,,,,,8101992752,r,r,m,23,3,001,2022-03-07_22h08.46.789,HW1,2022.1.1,60.10485892365922,
30.bmp,"(-4, 0)","(7, 7)",0,77,77,43,,,,,,,,,,,,,,,,,,,,,,,,,,,,,,,,,,,,,247.71330289996695,None,248.21303739992436,248.26283959997818,o,0.5185971000464633,248.21303739992436,None,,,,,,,,,,,,,,,,,,,,,8101992752,r,r,m,23,3,001,2022-03-07_22h08.46.789,HW1,2022.1.1,60.10485892365922,
20.bmp,"(2, -6.92)","(7, 7)",0,78,78,32,,,,,,,,,,,,,,,,,,,,,,,,,,,,,,,,,,,,,248.7624310000101,None,249.26205129991286,249.31140399992,o,0.5467570000328124,249.26205129991286,None,,,,,,,,,,,,,,,,,,,,,8101992752,r,r,m,23,3,001,2022-03-07_22h08.46.789,HW1,2022.1.1,60.10485892365922,
60.bmp,"(0, -7)","(10.5, 10.5)",0,79,79,89,,,,,,,,,,,,,,,,,,,,,,,,,,,,,,,,,,,,,249.82803999993484,None,250.3274028999731,250.37755819992162,o,0.6821536000352353,250.3274028999731,None,,,,,,,,,,,,,,,,,,,,,8101992752,r,r,m,23,3,001,2022-03-07_22h08.46.789,HW1,2022.1.1,60.10485892365922,
10.bmp,"(2, 6.92)","(7, 7)",0,80,80,15,,,,,,,,,,,,,,,,,,,,,,,,,,,,,,,,,,,,,251.02699259994552,None,251.52651290001813,251.57654009992257,p,0.7420281000668183,251.52651290001813,None,,,,,,,,,,,,,,,,,,,,,8101992752,r,r,m,23,3,001,2022-03-07_22h08.46.789,HW1,2022.1.1,60.10485892365922,
30.bmp,"(-6.06, -3.5)","(10.5, 10.5)",0,81,81,49,,,,,,,,,,,,,,,,,,,,,,,,,,,,,,,,,,,,,252.29256129998248,None,252.7922768999124,252.84213619993534,o,0.6781684999587014,252.7922768999124,None,,,,,,,,,,,,,,,,,,,,,8101992752,r,r,m,23,3,001,2022-03-07_22h08.46.789,HW1,2022.1.1,60.10485892365922,
70.bmp,"(2, 6.92)","(7, 7)",0,82,82,93,,,,,,,,,,,,,,,,,,,,,,,,,,,,,,,,,,,,,253.49162739992607,None,253.9908234999748,254.0407790999161,p,0.4997958999592811,253.9908234999748,None,,,,,,,,,,,,,,,,,,,,,8101992752,r,r,m,23,3,001,2022-03-07_22h08.46.789,HW1,2022.1.1,60.10485892365922,
60.bmp,"(2, -6.92)","(7, 7)",0,83,83,84,,,,,,,,,,,,,,,,,,,,,,,,,,,,,,,,,,,,,254.50716549996287,None,255.00700169999618,255.05694659997243,o,0.6050912999780849,255.00700169999618,None,,,,,,,,,,,,,,,,,,,,,8101992752,r,r,m,23,3,001,2022-03-07_22h08.46.789,HW1,2022.1.1,60.10485892365922,
10.bmp,"(0, 7)","(10.5, 10.5)",0,84,84,21,,,,,,,,,,,,,,,,,,,,,,,,,,,,,,,,,,,,,255.63963839993812,None,256.1391095999861,256.1889219000004,p,0.6232854999834672,256.1391095999861,None,,,,,,,,,,,,,,,,,,,,,8101992752,r,r,m,23,3,001,2022-03-07_22h08.46.789,HW1,2022.1.1,60.10485892365922,
70.bmp,"(0, 7)","(10.5, 10.5)",0,85,85,99,,,,,,,,,,,,,,,,,,,,,,,,,,,,,,,,,,,,,256.78882979997434,None,257.2881048999261,257.3383090000134,o,0.6811128000263125,257.2881048999261,None,,,,,,,,,,,,,,,,,,,,,8101992752,r,r,m,23,3,001,2022-03-07_22h08.46.789,HW1,2022.1.1,60.10485892365922,
20.bmp,"(0, -7)","(10.5, 10.5)",0,86,86,37,,,,,,,,,,,,,,,,,,,,,,,,,,,,,,,,,,,,,257.9878534999443,None,258.48697809991427,258.53695189999416,p,0.7169781000120565,258.48697809991427,None,,,,,,,,,,,,,,,,,,,,,8101992752,r,r,m,23,3,001,2022-03-07_22h08.46.789,HW1,2022.1.1,60.10485892365922,
80.bmp,"(-2, 6.92)","(7, 7)",0,87,87,107,,,,,,,,,,,,,,,,,,,,,,,,,,,,,,,,,,,,,259.2368371000048,None,259.73635989998,259.78601089993026,o,0.6808005999773741,259.73635989998,None,,,,,,,,,,,,,,,,,,,,,8101992752,r,r,m,23,3,001,2022-03-07_22h08.46.789,HW1,2022.1.1,60.10485892365922,
10.bmp,"(6.06, -3.5)","(10.5, 10.5)",0,88,88,25,,,,,,,,,,,,,,,,,,,,,,,,,,,,,,,,,,,,,260.4354669000022,None,260.93511899991427,260.98509099998046,p,0.6647894000634551,260.93511899991427,None,,,,,,,,,,,,,,,,,,,,,8101992752,r,r,m,23,3,001,2022-03-07_22h08.46.789,HW1,2022.1.1,60.10485892365922,
60.bmp,"(-2, 6.92)","(7, 7)",0,89,89,81,,,,,,,,,,,,,,,,,,,,,,,,,,,,,,,,,,,,,261.61787529999856,None,262.11755159997847,262.1675352000166,p,0.6425252999179065,262.11755159997847,None,,,,,,,,,,,,,,,,,,,,,8101992752,r,r,m,23,3,001,2022-03-07_22h08.46.789,HW1,2022.1.1,60.10485892365922,
80.bmp,"(-6.06, 3.5)","(10.5, 10.5)",0,90,90,113,,,,,,,,,,,,,,,,,,,,,,,,,,,,,,,,,,,,,262.7834768999601,None,263.2833834999474,263.33293949998915,p,0.5522141000255942,263.2833834999474,None,,,,,,,,,,,,,,,,,,,,,8101992752,r,r,m,23,3,001,2022-03-07_22h08.46.789,HW1,2022.1.1,60.10485892365922,
80.bmp,"(0, 0)","(4.375, 4.375)",0,91,91,104,,,,,,,,,,,,,,,,,,,,,,,,,,,,,,,,,,,,,263.8658603000222,None,264.36549729993567,264.4150173999369,o,0.3299869999755174,264.36549729993567,None,,,,,,,,,,,,,,,,,,,,,8101992752,r,r,m,23,3,001,2022-03-07_22h08.46.789,HW1,2022.1.1,60.10485892365922,
40.bmp,"(-6.06, 3.5)","(10.5, 10.5)",0,92,92,61,,,,,,,,,,,,,,,,,,,,,,,,,,,,,,,,,,,,,264.71508290001657,None,265.2144770999439,265.264393499936,o,0.4514201999409124,265.2144770999439,None,,,,,,,,,,,,,,,,,,,,,8101992752,r,r,m,23,3,001,2022-03-07_22h08.46.789,HW1,2022.1.1,60.10485892365922,
0.bmp,"(-6.06, 3.5)","(10.5, 10.5)",0,93,93,9,,,,,,,,,,,,,,,,,,,,,,,,,,,,,,,,,,,,,265.69748769991565,None,266.1970128000248,266.24722499994095,o,0.5854229000397027,266.1970128000248,None,,,,,,,,,,,,,,,,,,,,,8101992752,r,r,m,23,3,001,2022-03-07_22h08.46.789,HW1,2022.1.1,60.10485892365922,
20.bmp,"(0, 0)","(4.375, 4.375)",0,94,94,26,,,,,,,,,,,,,,,,,,,,,,,,,,,,,,,,,,,,,266.81336839997675,None,267.31278699997347,267.36269490001723,o,0.46711209998466074,267.31278699997347,None,,,,,,,,,,,,,,,,,,,,,8101992752,r,r,m,23,3,001,2022-03-07_22h08.46.789,HW1,2022.1.1,60.10485892365922,
60.bmp,"(-2, -6.92)","(7, 7)",0,95,95,83,,,,,,,,,,,,,,,,,,,,,,,,,,,,,,,,,,,,,267.8125178000191,None,268.3120116000064,268.3618806999875,p,1.3102225000038743,268.3120116000064,None,,,,,,,,,,,,,,,,,,,,,8101992752,r,r,m,23,3,001,2022-03-07_22h08.46.789,HW1,2022.1.1,60.10485892365922,
30.bmp,"(4, 0)","(7, 7)",0,96,96,40,,,,,,,,,,,,,,,,,,,,,,,,,,,,,,,,,,,,,269.6439069999615,None,270.1436836000066,270.19377919996623,o,1.1377446000697091,270.1436836000066,None,,,,,,,,,,,,,,,,,,,,,8101992752,r,r,m,23,3,001,2022-03-07_22h08.46.789,HW1,2022.1.1,60.10485892365922,
0.bmp,"(0, 7)","(10.5, 10.5)",0,97,97,8,,,,,,,,,,,,,,,,,,,,,,,,,,,,,,,,,,,,,271.309483799967,None,271.80887479998637,271.85882459999993,p,0.9188260999508202,271.80887479998637,None,,,,,,,,,,,,,,,,,,,,,8101992752,r,r,m,23,3,001,2022-03-07_22h08.46.789,HW1,2022.1.1,60.10485892365922,
10.bmp,"(-2, 6.92)","(7, 7)",0,98,98,16,,,,,,,,,,,,,,,,,,,,,,,,,,,,,,,,,,,,,272.7581415999448,None,273.25770660000853,273.307794699911,o,0.5747283999808133,273.25770660000853,None,,,,,,,,,,,,,,,,,,,,,8101992752,r,r,m,23,3,001,2022-03-07_22h08.46.789,HW1,2022.1.1,60.10485892365922,
80.bmp,"(-4, 0)","(7, 7)",0,99,99,108,,,,,,,,,,,,,,,,,,,,,,,,,,,,,,,,,,,,,273.85730269993655,None,274.3568262999179,274.4066763999872,p,0.5099185999715701,274.3568262999179,None,,,,,,,,,,,,,,,,,,,,,8101992752,r,r,m,23,3,001,2022-03-07_22h08.46.789,HW1,2022.1.1,60.10485892365922,
70.bmp,"(6.06, -3.5)","(10.5, 10.5)",0,100,100,103,,,,,,,,,,,,,,,,,,,,,,,,,,,,,,,,,,,,,274.889404800022,None,275.389085099916,275.43887840001844,o,0.9010500999866053,275.389085099916,None,,,,,,,,,,,,,,,,,,,,,8101992752,r,r,m,23,3,001,2022-03-07_22h08.46.789,HW1,2022.1.1,60.10485892365922,
30.bmp,"(-2, -6.92)","(7, 7)",0,101,101,44,,,,,,,,,,,,,,,,,,,,,,,,,,,,,,,,,,,,,276.32148709998,None,276.8212596999947,276.8710225999821,p,0.552626800024882,276.8212596999947,None,,,,,,,,,,,,,,,,,,,,,8101992752,r,r,m,23,3,001,2022-03-07_22h08.46.789,HW1,2022.1.1,60.10485892365922,
20.bmp,"(-2, 6.92)","(7, 7)",0,102,102,29,,,,,,,,,,,,,,,,,,,,,,,,,,,,,,,,,,,,,277.40407859999686,None,277.9036049999995,277.9536913000047,o,0.6136034999508411,277.9036049999995,None,,,,,,,,,,,,,,,,,,,,,8101992752,r,r,m,23,3,001,2022-03-07_22h08.46.789,HW1,2022.1.1,60.10485892365922,
70.bmp,"(-2, -6.92)","(7, 7)",0,103,103,96,,,,,,,,,,,,,,,,,,,,,,,,,,,,,,,,,,,,,278.536465400015,None,279.03617340000346,279.08597849996295,p,0.55870550009422,279.03617340000346,None,,,,,,,,,,,,,,,,,,,,,8101992752,r,r,m,23,3,001,2022-03-07_22h08.46.789,HW1,2022.1.1,60.10485892365922,
30.bmp,"(2, 6.92)","(7, 7)",0,104,104,41,,,,,,,,,,,,,,,,,,,,,,,,,,,,,,,,,,,,,279.6188220999902,None,280.11832569993567,280.1680630999617,o,0.4653831999748945,280.11832569993567,None,,,,,,,,,,,,,,,,,,,,,8101992752,r,r,m,23,3,001,2022-03-07_22h08.46.789,HW1,2022.1.1,60.10485892365922,
50.bmp,"(-6.06, 3.5)","(10.5, 10.5)",0,105,105,74,,,,,,,,,,,,,,,,,,,,,,,,,,,,,,,,,,,,,280.6012990999734,None,281.10054169991054,281.15060940000694,p,0.4193132999353111,281.10054169991054,None,,,,,,,,,,,,,,,,,,,,,8101992752,r,r,m,23,3,001,2022-03-07_22h08.46.789,HW1,2022.1.1,60.10485892365922,
30.bmp,"(-2, 6.92)","(7, 7)",0,106,106,42,,,,,,,,,,,,,,,,,,,,,,,,,,,,,,,,,,,,,281.5504968999885,None,282.05005770002026,282.09996189991944,o,0.3022909000283107,282.05005770002026,None,,,,,,,,,,,,,,,,,,,,,8101992752,r,r,m,23,3,001,2022-03-07_22h08.46.789,HW1,2022.1.1,60.10485892365922,
10.bmp,"(0, 0)","(4.375, 4.375)",0,107,107,13,,,,,,,,,,,,,,,,,,,,,,,,,,,,,,,,,,,,,282.38302970002405,None,282.8822495000204,282.9325502999127,p,0.29292609996628016,282.8822495000204,None,,,,,,,,,,,,,,,,,,,,,8101992752,r,r,m,23,3,001,2022-03-07_22h08.46.789,HW1,2022.1.1,60.10485892365922,
80.bmp,"(4, 0)","(7, 7)",0,108,108,105,,,,,,,,,,,,,,,,,,,,,,,,,,,,,,,,,,,,,283.1985512999818,None,283.69864760001656,283.74851189996116,o,0.2931846999563277,283.69864760001656,None,,,,,,,,,,,,,,,,,,,,,8101992752,r,r,m,23,3,001,2022-03-07_22h08.46.789,HW1,2022.1.1,60.10485892365922,
40.bmp,"(-2, -6.92)","(7, 7)",0,109,109,57,,,,,,,,,,,,,,,,,,,,,,,,,,,,,,,,,,,,,284.014810499968,None,284.514880899922,284.5647203999106,p,0.2734853000147268,284.514880899922,None,,,,,,,,,,,,,,,,,,,,,8101992752,r,r,m,23,3,001,2022-03-07_22h08.46.789,HW1,2022.1.1,60.10485892365922,
70.bmp,"(-2, 6.92)","(7, 7)",0,110,110,94,,,,,,,,,,,,,,,,,,,,,,,,,,,,,,,,,,,,,284.81431249994785,None,285.3140253999736,285.36368259997107,o,0.28620129998307675,285.3140253999736,None,,,,,,,,,,,,,,,,,,,,,8101992752,r,r,m,23,3,001,2022-03-07_22h08.46.789,HW1,2022.1.1,60.10485892365922,
20.bmp,"(-2, -6.92)","(7, 7)",0,111,111,31,,,,,,,,,,,,,,,,,,,,,,,,,,,,,,,,,,,,,285.63044909993187,None,286.12976869998965,286.17960299993865,p,0.28536970005370677,286.12976869998965,None,,,,,,,,,,,,,,,,,,,,,8101992752,r,r,m,23,3,001,2022-03-07_22h08.46.789,HW1,2022.1.1,60.10485892365922,
30.bmp,"(0, 0)","(4.375, 4.375)",0,112,112,39,,,,,,,,,,,,,,,,,,,,,,,,,,,,,,,,,,,,,286.44618989992887,None,286.94556459994055,286.9957557999296,o,0.4164139999775216,286.94556459994055,None,,,,,,,,,,,,,,,,,,,,,8101992752,r,r,m,23,3,001,2022-03-07_22h08.46.789,HW1,2022.1.1,60.10485892365922,
0.bmp,"(4, 0)","(7, 7)",0,113,113,1,,,,,,,,,,,,,,,,,,,,,,,,,,,,,,,,,,,,,287.3785116999643,None,287.8785016000038,287.9279684999492,p,0.24074859998654574,287.8785016000038,None,,,,,,,,,,,,,,,,,,,,,8101992752,r,r,m,23,3,001,2022-03-07_22h08.46.789,HW1,2022.1.1,60.10485892365922,
60.bmp,"(0, 7)","(10.5, 10.5)",0,114,114,86,,,,,,,,,,,,,,,,,,,,,,,,,,,,,,,,,,,,,288.14474169991445,None,288.6445368999848,288.69419309997465,p,0.7026421999325976,288.6445368999848,None,,,,,,,,,,,,,,,,,,,,,8101992752,r,r,m,23,3,001,2022-03-07_22h08.46.789,HW1,2022.1.1,60.10485892365922,
10.bmp,"(0, -7)","(10.5, 10.5)",0,115,115,24,,,,,,,,,,,,,,,,,,,,,,,,,,,,,,,,,,,,,289.3771137999138,None,289.89275809994433,289.94266349996906,p,0.42751720000524074,289.89275809994433,None,,,,,,,,,,,,,,,,,,,,,8101992752,r,r,m,23,3,001,2022-03-07_22h08.46.789,HW1,2022.1.1,60.10485892365922,
60.bmp,"(-4, 0)","(7, 7)",0,116,116,82,,,,,,,,,,,,,,,,,,,,,,,,,,,,,,,,,,,,,290.34294649993535,None,290.84235819999594,290.8921253000153,o,0.2542592000681907,290.84235819999594,None,,,,,,,,,,,,,,,,,,,,,8101992752,r,r,m,23,3,001,2022-03-07_22h08.46.789,HW1,2022.1.1,60.10485892365922,
20.bmp,"(2, -6.92)","(7, 7)",1,0,117,32,,,,,,,,,,,,,,,,,,,,,,,,,,,,,,,,,,,,,291.12519099994097,None,291.6250887999777,291.6748076999793,o,0.46164069999940693,291.6250887999777,None,,,,,,,,,,,,,,,,,,,,,8101992752,r,r,m,23,3,001,2022-03-07_22h08.46.789,HW1,2022.1.1,60.10485892365922,
50.bmp,"(0, -7)","(10.5, 10.5)",1,1,118,76,,,,,,,,,,,,,,,,,,,,,,,,,,,,,,,,,,,,,292.1075131999096,None,292.60736219992395,292.65742780000437,o,0.443082100013271,292.60736219992395,None,,,,,,,,,,,,,,,,,,,,,8101992752,r,r,m,23,3,001,2022-03-07_22h08.46.789,HW1,2022.1.1,60.10485892365922,
30.bmp,"(0, 0)","(4.375, 4.375)",1,2,119,39,,,,,,,,,,,,,,,,,,,,,,,,,,,,,,,,,,,,,293.0740609000204,None,293.5731508999597,293.6230113999918,p,0.32114580005872995,293.5731508999597,None,,,,,,,,,,,,,,,,,,,,,8101992752,r,r,m,23,3,001,2022-03-07_22h08.46.789,HW1,2022.1.1,60.10485892365922,
70.bmp,"(6.06, -3.5)","(10.5, 10.5)",1,3,120,103,,,,,,,,,,,,,,,,,,,,,,,,,,,,,,,,,,,,,293.9228577999165,None,294.42224510002416,294.47215549997054,p,0.8281051000813022,294.42224510002416,None,,,,,,,,,,,,,,,,,,,,,8101992752,r,r,m,23,3,001,2022-03-07_22h08.46.789,HW1,2022.1.1,60.10485892365922,
10.bmp,"(0, -7)","(10.5, 10.5)",1,4,121,24,,,,,,,,,,,,,,,,,,,,,,,,,,,,,,,,,,,,,295.27226999995764,None,295.771371299983,295.8211328999605,p,0.31947759992908686,295.771371299983,None,,,,,,,,,,,,,,,,,,,,,8101992752,r,r,m,23,3,001,2022-03-07_22h08.46.789,HW1,2022.1.1,60.10485892365922,
80.bmp,"(-6.06, 3.5)","(10.5, 10.5)",1,5,122,113,,,,,,,,,,,,,,,,,,,,,,,,,,,,,,,,,,,,,296.12201439996716,None,296.636878099991,296.6869283999549,o,0.40952689992263913,296.636878099991,None,,,,,,,,,,,,,,,,,,,,,8101992752,r,r,m,23,3,001,2022-03-07_22h08.46.789,HW1,2022.1.1,60.10485892365922,
80.bmp,"(0, -7)","(10.5, 10.5)",1,6,123,115,,,,,,,,,,,,,,,,,,,,,,,,,,,,,,,,,,,,,297.07028909993824,None,297.5697398999473,297.6196305999765,p,0.6029998000012711,297.5697398999473,None,,,,,,,,,,,,,,,,,,,,,8101992752,r,r,m,23,3,001,2022-03-07_22h08.46.789,HW1,2022.1.1,60.10485892365922,
40.bmp,"(-6.06, -3.5)","(10.5, 10.5)",1,7,124,62,,,,,,,,,,,,,,,,,,,,,,,,,,,,,,,,,,,,,298.2026760999579,None,298.70237919990905,298.75161819998175,p,0.7400476000038907,298.70237919990905,None,,,,,,,,,,,,,,,,,,,,,8101992752,r,r,m,23,3,001,2022-03-07_22h08.46.789,HW1,2022.1.1,60.10485892365922,
30.bmp,"(6.06, -3.5)","(10.5, 10.5)",1,8,125,51,,,,,,,,,,,,,,,,,,,,,,,,,,,,,,,,,,,,,299.4686863999814,None,299.9676660000114,300.0175086000236,o,0.42060519999358803,299.9676660000114,None,,,,,,,,,,,,,,,,,,,,,8101992752,r,r,m,23,3,001,2022-03-07_22h08.46.789,HW1,2022.1.1,60.10485892365922,
10.bmp,"(-2, -6.92)","(7, 7)",1,9,126,18,,,,,,,,,,,,,,,,,,,,,,,,,,,,,,,,,,,,,300.41726509993896,None,300.916845300002,300.96671029995196,p,0.45199159998446703,300.916845300002,None,,,,,,,,,,,,,,,,,,,,,8101992752,r,r,m,23,3,001,2022-03-07_22h08.46.789,HW1,2022.1.1,60.10485892365922,
40.bmp,"(-4, 0)","(7, 7)",1,10,127,56,,,,,,,,,,,,,,,,,,,,,,,,,,,,,,,,,,,,,301.39974209992215,None,301.89933129993733,301.9491609999677,o,0.37272710003890097,301.89933129993733,None,,,,,,,,,,,,,,,,,,,,,8101992752,r,r,m,23,3,001,2022-03-07_22h08.46.789,HW1,2022.1.1,60.10485892365922,
20.bmp,"(0, 7)","(10.5, 10.5)",1,11,128,34,,,,,,,,,,,,,,,,,,,,,,,,,,,,,,,,,,,,,302.2990815999219,None,302.79858169995714,302.8486921999138,p,0.492318999953568,302.79858169995714,None,,,,,,,,,,,,,,,,,,,,,8101992752,r,r,m,23,3,001,2022-03-07_22h08.46.789,HW1,2022.1.1,60.10485892365922,
40.bmp,"(6.06, 3.5)","(10.5, 10.5)",1,12,129,59,,,,,,,,,,,,,,,,,,,,,,,,,,,,,,,,,,,,,303.31457849999424,None,303.8142375999596,303.86416260001715,o,0.46455589996185154,303.8142375999596,None,,,,,,,,,,,,,,,,,,,,,8101992752,r,r,m,23,3,001,2022-03-07_22h08.46.789,HW1,2022.1.1,60.10485892365922,
50.bmp,"(-6.06, -3.5)","(10.5, 10.5)",1,13,130,75,,,,,,,,,,,,,,,,,,,,,,,,,,,,,,,,,,,,,304.29722229996696,None,304.7969052999979,304.84647320001386,p,0.47331709996797144,304.7969052999979,None,,,,,,,,,,,,,,,,,,,,,8101992752,r,r,m,23,3,001,2022-03-07_22h08.46.789,HW1,2022.1.1,60.10485892365922,
30.bmp,"(2, -6.92)","(7, 7)",1,14,131,45,,,,,,,,,,,,,,,,,,,,,,,,,,,,,,,,,,,,,305.2962181000039,None,305.7961021999363,305.84578829992097,o,0.5817459999816492,305.7961021999363,None,,,,,,,,,,,,,,,,,,,,,8101992752,r,r,m,23,3,001,2022-03-07_22h08.46.789,HW1,2022.1.1,60.10485892365922,
50.bmp,"(-6.06, 3.5)","(10.5, 10.5)",1,15,132,74,,,,,,,,,,,,,,,,,,,,,,,,,,,,,,,,,,,,,306.39560019993223,None,306.8949055999983,306.9449365999317,p,0.5217257000040263,306.8949055999983,None,,,,,,,,,,,,,,,,,,,,,8101992752,r,r,m,23,3,001,2022-03-07_22h08.46.789,HW1,2022.1.1,60.10485892365922,
40.bmp,"(-2, -6.92)","(7, 7)",1,16,133,57,,,,,,,,,,,,,,,,,,,,,,,,,,,,,,,,,,,,,307.44467819994316,None,307.9603874000022,308.01031739998143,o,0.5001225000014529,307.9603874000022,None,,,,,,,,,,,,,,,,,,,,,8101992752,r,r,m,23,3,001,2022-03-07_22h08.46.789,HW1,2022.1.1,60.10485892365922,
80.bmp,"(2, -6.92)","(7, 7)",1,17,134,110,,,,,,,,,,,,,,,,,,,,,,,,,,,,,,,,,,,,,308.47697169997264,None,308.9763306999812,309.02633020002395,p,0.5142296999692917,308.9763306999812,None,,,,,,,,,,,,,,,,,,,,,8101992752,r,r,m,23,3,001,2022-03-07_22h08.46.789,HW1,2022.1.1,60.10485892365922,
60.bmp,"(0, 7)","(10.5, 10.5)",1,18,135,86,,,,,,,,,,,,,,,,,,,,,,,,,,,,,,,,,,,,,309.5091699999757,None,310.0089399999706,310.05847249994986,o,0.48443179996684194,310.0089399999706,None,,,,,,,,,,,,,,,,,,,,,8101992752,r,r,m,23,3,001,2022-03-07_22h08.46.789,HW1,2022.1.1,60.10485892365922,
10.bmp,"(0, 0)","(4.375, 4.375)",1,19,136,13,,,,,,,,,,,,,,,,,,,,,,,,,,,,,,,,,,,,,310.5251576999435,None,311.0246086999541,311.07466309994925,p,0.43742309999652207,311.0246086999541,None,,,,,,,,,,,,,,,,,,,,,8101992752,r,r,m,23,3,001,2022-03-07_22h08.46.789,HW1,2022.1.1,60.10485892365922,
80.bmp,"(-4, 0)","(7, 7)",1,20,137,108,,,,,,,,,,,,,,,,,,,,,,,,,,,,,,,,,,,,,311.4911202000221,None,311.9906826999504,312.0404597999295,o,0.4752024000044912,311.9906826999504,None,,,,,,,,,,,,,,,,,,,,,8101992752,r,r,m,23,3,001,2022-03-07_22h08.46.789,HW1,2022.1.1,60.10485892365922,
70.bmp,"(0, -7)","(10.5, 10.5)",1,21,138,102,,,,,,,,,,,,,,,,,,,,,,,,,,,,,,,,,,,,,312.48971859994344,None,312.98968909995165,313.0393597999355,p,0.4492558999918401,312.98968909995165,None,,,,,,,,,,,,,,,,,,,,,8101992752,r,r,m,23,3,001,2022-03-07_22h08.46.789,HW1,2022.1.1,60.10485892365922,
70.bmp,"(0, 0)","(4.375, 4.375)",1,22,139,91,,,,,,,,,,,,,,,,,,,,,,,,,,,,,,,,,,,,,313.45580240001436,None,313.9557072999887,314.00553580000997,o,0.4349380999337882,313.9557072999887,None,,,,,,,,,,,,,,,,,,,,,8101992752,r,r,m,23,3,001,2022-03-07_22h08.46.789,HW1,2022.1.1,60.10485892365922,
40.bmp,"(0, 7)","(10.5, 10.5)",1,23,140,60,,,,,,,,,,,,,,,,,,,,,,,,,,,,,,,,,,,,,314.42154389992356,None,314.92145289992914,314.97154880000744,p,0.4015477999346331,314.92145289992914,None,,,,,,,,,,,,,,,,,,,,,8101992752,r,r,m,23,3,001,2022-03-07_22h08.46.789,HW1,2022.1.1,60.10485892365922,
60.bmp,"(0, 0)","(4.375, 4.375)",1,24,141,78,,,,,,,,,,,,,,,,,,,,,,,,,,,,,,,,,,,,,315.3543078999501,None,315.85346839996055,315.90376999997534,o,0.459567999932915,315.85346839996055,None,,,,,,,,,,,,,,,,,,,,,8101992752,r,r,m,23,3,001,2022-03-07_22h08.46.789,HW1,2022.1.1,60.10485892365922,
80.bmp,"(2, 6.92)","(7, 7)",1,25,142,106,,,,,,,,,,,,,,,,,,,,,,,,,,,,,,,,,,,,,316.3368199999677,None,316.8362670999486,316.8866252999287,p,0.38881470006890595,316.8362670999486,None,,,,,,,,,,,,,,,,,,,,,8101992752,r,r,m,23,3,001,2022-03-07_22h08.46.789,HW1,2022.1.1,60.10485892365922,
80.bmp,"(4, 0)","(7, 7)",1,26,143,105,,,,,,,,,,,,,,,,,,,,,,,,,,,,,,,,,,,,,317.2528516999446,None,317.7688087999122,317.8187018999597,o,0.3334093999583274,317.7688087999122,None,,,,,,,,,,,,,,,,,,,,,8101992752,r,r,m,23,3,001,2022-03-07_22h08.46.789,HW1,2022.1.1,60.10485892365922,
0.bmp,"(0, -7)","(10.5, 10.5)",1,27,144,11,,,,,,,,,,,,,,,,,,,,,,,,,,,,,,,,,,,,,318.1181363000069,None,318.61805509997066,318.6680491999723,p,0.3902700999751687,318.61805509997066,None,,,,,,,,,,,,,,,,,,,,,8101992752,r,r,m,23,3,001,2022-03-07_22h08.46.789,HW1,2022.1.1,60.10485892365922,
80.bmp,"(6.06, 3.5)","(10.5, 10.5)",1,28,145,111,,,,,,,,,,,,,,,,,,,,,,,,,,,,,,,,,,,,,319.0342631000094,None,319.53401619999204,319.58405820000917,o,0.3511540999170393,319.53401619999204,None,,,,,,,,,,,,,,,,,,,,,8101992752,r,r,m,23,3,001,2022-03-07_22h08.46.789,HW1,2022.1.1,60.10485892365922,
10.bmp,"(-6.06, -3.5)","(10.5, 10.5)",1,29,146,23,,,,,,,,,,,,,,,,,,,,,,,,,,,,,,,,,,,,,319.9168395999586,None,320.41646279999986,320.4664698999841,p,0.4311685999855399,320.41646279999986,None,,,,,,,,,,,,,,,,,,,,,8101992752,r,r,m,23,3,001,2022-03-07_22h08.46.789,HW1,2022.1.1,60.10485892365922,
50.bmp,"(-2, -6.92)","(7, 7)",1,30,147,70,,,,,,,,,,,,,,,,,,,,,,,,,,,,,,,,,,,,,320.8661696999334,None,321.36530880001374,321.4152779999422,p,0.4934026999399066,321.36530880001374,None,,,,,,,,,,,,,,,,,,,,,8101992752,r,r,m,23,3,001,2022-03-07_22h08.46.789,HW1,2022.1.1,60.10485892365922,
40.bmp,"(-2, 6.92)","(7, 7)",1,31,148,55,,,,,,,,,,,,,,,,,,,,,,,,,,,,,,,,,,,,,321.88194250001106,None,322.38167719997,322.43119939998724,o,0.5492694999556988,322.38167719997,None,,,,,,,,,,,,,,,,,,,,,8101992752,r,r,m,23,3,001,2022-03-07_22h08.46.789,HW1,2022.1.1,60.10485892365922,
30.bmp,"(-6.06, 3.5)","(10.5, 10.5)",1,32,149,48,,,,,,,,,,,,,,,,,,,,,,,,,,,,,,,,,,,,,322.9476472999668,None,323.4472818999784,323.49711280001793,p,0.4139121000189334,323.4472818999784,None,,,,,,,,,,,,,,,,,,,,,8101992752,r,r,m,23,3,001,2022-03-07_22h08.46.789,HW1,2022.1.1,60.10485892365922,
70.bmp,"(0, 7)","(10.5, 10.5)",1,33,150,99,,,,,,,,,,,,,,,,,,,,,,,,,,,,,,,,,,,,,323.88007760001346,None,324.379271099926,324.4299544999376,p,0.39766519994009286,324.379271099926,None,,,,,,,,,,,,,,,,,,,,,8101992752,r,r,m,23,3,001,2022-03-07_22h08.46.789,HW1,2022.1.1,60.10485892365922,
50.bmp,"(6.06, 3.5)","(10.5, 10.5)",1,34,151,72,,,,,,,,,,,,,,,,,,,,,,,,,,,,,,,,,,,,,324.7958744999487,None,325.2958237999119,325.3453768999316,p,0.3224757000571117,325.2958237999119,None,,,,,,,,,,,,,,,,,,,,,8101992752,r,r,m,23,3,001,2022-03-07_22h08.46.789,HW1,2022.1.1,60.10485892365922,
50.bmp,"(4, 0)","(7, 7)",1,35,152,66,,,,,,,,,,,,,,,,,,,,,,,,,,,,,,,,,,,,,325.6452009999193,None,326.1446841999423,326.194856600021,p,0.3892938999924809,326.1446841999423,None,,,,,,,,,,,,,,,,,,,,,8101992752,r,r,m,23,3,001,2022-03-07_22h08.46.789,HW1,2022.1.1,60.10485892365922,
30.bmp,"(-4, 0)","(7, 7)",1,36,153,43,,,,,,,,,,,,,,,,,,,,,,,,,,,,,,,,,,,,,326.56112450000364,None,327.0605566999875,327.1107247999171,p,0.38838150002993643,327.0605566999875,None,,,,,,,,,,,,,,,,,,,,,8101992752,r,r,m,23,3,001,2022-03-07_22h08.46.789,HW1,2022.1.1,60.10485892365922,
0.bmp,"(6.06, 3.5)","(10.5, 10.5)",1,37,154,7,,,,,,,,,,,,,,,,,,,,,,,,,,,,,,,,,,,,,327.47702079999726,None,327.97656340000685,328.02677110000513,p,0.5871062000514939,327.97656340000685,None,,,,,,,,,,,,,,,,,,,,,8101992752,r,r,m,23,3,001,2022-03-07_22h08.46.789,HW1,2022.1.1,60.10485892365922,
10.bmp,"(-6.06, 3.5)","(10.5, 10.5)",1,38,155,22,,,,,,,,,,,,,,,,,,,,,,,,,,,,,,,,,,,,,328.5928107999498,None,329.09223449998535,329.14229649992194,o,0.41903699992690235,329.09223449998535,None,,,,,,,,,,,,,,,,,,,,,8101992752,r,r,m,23,3,001,2022-03-07_22h08.46.789,HW1,2022.1.1,60.10485892365922,
50.bmp,"(2, -6.92)","(7, 7)",1,39,156,71,,,,,,,,,,,,,,,,,,,,,,,,,,,,,,,,,,,,,329.5419402999105,None,330.04136789997574,330.0912371999584,o,0.36836029996629804,330.04136789997574,None,,,,,,,,,,,,,,,,,,,,,8101992752,r,r,m,23,3,001,2022-03-07_22h08.46.789,HW1,2022.1.1,60.10485892365922,
30.bmp,"(4, 0)","(7, 7)",1,40,157,40,,,,,,,,,,,,,,,,,,,,,,,,,,,,,,,,,,,,,330.44121439999435,None,330.9407882000087,330.9905061000027,p,0.28657190001104027,330.9407882000087,None,,,,,,,,,,,,,,,,,,,,,8101992752,r,r,m,23,3,001,2022-03-07_22h08.46.789,HW1,2022.1.1,60.10485892365922,
60.bmp,"(-2, -6.92)","(7, 7)",1,41,158,83,,,,,,,,,,,,,,,,,,,,,,,,,,,,,,,,,,,,,331.25723689992446,None,331.7565064999508,331.80640789994504,o,0.36773850000463426,331.7565064999508,None,,,,,,,,,,,,,,,,,,,,,8101992752,r,r,m,23,3,001,2022-03-07_22h08.46.789,HW1,2022.1.1,60.10485892365922,
20.bmp,"(-2, 6.92)","(7, 7)",1,42,159,29,,,,,,,,,,,,,,,,,,,,,,,,,,,,,,,,,,,,,332.15612960001454,None,332.6555638000136,332.70622099994216,p,0.3759301999816671,332.6555638000136,None,,,,,,,,,,,,,,,,,,,,,8101992752,r,r,m,23,3,001,2022-03-07_22h08.46.789,HW1,2022.1.1,60.10485892365922,
20.bmp,"(2, 6.92)","(7, 7)",1,43,160,28,,,,,,,,,,,,,,,,,,,,,,,,,,,,,,,,,,,,,333.05554789991584,None,333.55511870002374,333.6047836999642,p,0.3569128999952227,333.55511870002374,None,,,,,,,,,,,,,,,,,,,,,8101992752,r,r,m,23,3,001,2022-03-07_22h08.46.789,HW1,2022.1.1,60.10485892365922,
40.bmp,"(6.06, -3.5)","(10.5, 10.5)",1,44,161,64,,,,,,,,,,,,,,,,,,,,,,,,,,,,,,,,,,,,,333.93806899990886,None,334.4374341999646,334.4874913999811,p,0.3171220999211073,334.4374341999646,None,,,,,,,,,,,,,,,,,,,,,8101992752,r,r,m,23,3,001,2022-03-07_22h08.46.789,HW1,2022.1.1,60.10485892365922,
50.bmp,"(6.06, -3.5)","(10.5, 10.5)",1,45,162,77,,,,,,,,,,,,,,,,,,,,,,,,,,,,,,,,,,,,,334.787483699969,None,335.28688519995194,335.3366750999121,o,0.21045349992346019,335.28688519995194,None,,,,,,,,,,,,,,,,,,,,,8101992752,r,r,m,23,3,001,2022-03-07_22h08.46.789,HW1,2022.1.1,60.10485892365922,
20.bmp,"(0, -7)","(10.5, 10.5)",1,46,163,37,,,,,,,,,,,,,,,,,,,,,,,,,,,,,,,,,,,,,335.51997349993326,None,336.0194747999776,336.0696011999389,p,0.3311970999930054,336.0194747999776,None,,,,,,,,,,,,,,,,,,,,,8101992752,r,r,m,23,3,001,2022-03-07_22h08.46.789,HW1,2022.1.1,60.10485892365922,
0.bmp,"(-2, 6.92)","(7, 7)",1,47,164,3,,,,,,,,,,,,,,,,,,,,,,,,,,,,,,,,,,,,,336.369268200011,None,336.8687945000129,336.9188979999162,o,0.33009200007654727,336.8687945000129,None,,,,,,,,,,,,,,,,,,,,,8101992752,r,r,m,23,3,001,2022-03-07_22h08.46.789,HW1,2022.1.1,60.10485892365922,
70.bmp,"(4, 0)","(7, 7)",1,48,165,92,,,,,,,,,,,,,,,,,,,,,,,,,,,,,,,,,,,,,337.2180451999884,None,337.7181507999776,337.76825510000344,p,0.41667590010911226,337.7181507999776,None,,,,,,,,,,,,,,,,,,,,,8101992752,r,r,m,23,3,001,2022-03-07_22h08.46.789,HW1,2022.1.1,60.10485892365922,
0.bmp,"(2, 6.92)","(7, 7)",1,49,166,2,,,,,,,,,,,,,,,,,,,,,,,,,,,,,,,,,,,,,338.15089910000097,None,338.65057629998773,338.7005141999107,o,0.32194329996127635,338.65057629998773,None,,,,,,,,,,,,,,,,,,,,,8101992752,r,r,m,23,3,001,2022-03-07_22h08.46.789,HW1,2022.1.1,60.10485892365922,
10.bmp,"(2, 6.92)","(7, 7)",1,50,167,15,,,,,,,,,,,,,,,,,,,,,,,,,,,,,,,,,,,,,339.0002682999475,None,339.4994760999689,339.54967739991844,p,0.31929869996383786,339.4994760999689,None,,,,,,,,,,,,,,,,,,,,,8101992752,r,r,m,23,3,001,2022-03-07_22h08.46.789,HW1,2022.1.1,60.10485892365922,
50.bmp,"(-2, 6.92)","(7, 7)",1,51,168,68,,,,,,,,,,,,,,,,,,,,,,,,,,,,,,,,,,,,,339.8493170000147,None,340.3492109000217,340.39890459994785,o,0.47703440010081977,340.3492109000217,None,,,,,,,,,,,,,,,,,,,,,8101992752,r,r,m,23,3,001,2022-03-07_22h08.46.789,HW1,2022.1.1,60.10485892365922,
20.bmp,"(0, 0)","(4.375, 4.375)",1,52,169,26,,,,,,,,,,,,,,,,,,,,,,,,,,,,,,,,,,,,,340.8482341999188,None,341.34815620002337,341.39821070001926,p,0.6684019999811426,341.34815620002337,None,,,,,,,,,,,,,,,,,,,,,8101992752,r,r,m,23,3,001,2022-03-07_22h08.46.789,HW1,2022.1.1,60.10485892365922,
20.bmp,"(-6.06, 3.5)","(10.5, 10.5)",1,53,170,35,,,,,,,,,,,,,,,,,,,,,,,,,,,,,,,,,,,,,342.04765959992073,None,342.54733570001554,342.59713319991715,p,0.7530885000014678,342.54733570001554,None,,,,,,,,,,,,,,,,,,,,,8101992752,r,r,m,23,3,001,2022-03-07_22h08.46.789,HW1,2022.1.1,60.10485892365922,
0.bmp,"(-6.06, -3.5)","(10.5, 10.5)",1,54,171,10,,,,,,,,,,,,,,,,,,,,,,,,,,,,,,,,,,,,,343.3300011999672,None,343.82912659994327,343.8791727999924,p,0.5709489999571815,343.82912659994327,None,,,,,,,,,,,,,,,,,,,,,8101992752,r,r,m,23,3,001,2022-03-07_22h08.46.789,HW1,2022.1.1,60.10485892365922,
60.bmp,"(-4, 0)","(7, 7)",1,55,172,82,,,,,,,,,,,,,,,,,,,,,,,,,,,,,,,,,,,,,344.42879469995387,None,344.9290092999581,344.97828569996636,p,0.5169981999788433,344.9290092999581,None,,,,,,,,,,,,,,,,,,,,,8101992752,r,r,m,23,3,001,2022-03-07_22h08.46.789,HW1,2022.1.1,60.10485892365922,
70.bmp,"(6.06, 3.5)","(10.5, 10.5)",1,56,173,98,,,,,,,,,,,,,,,,,,,,,,,,,,,,,,,,,,,,,345.4779580999166,None,345.97732509998605,346.0273481999757,o,0.6994184000650421,345.97732509998605,None,,,,,,,,,,,,,,,,,,,,,8101992752,r,r,m,23,3,001,2022-03-07_22h08.46.789,HW1,2022.1.1,60.10485892365922,
80.bmp,"(-2, 6.92)","(7, 7)",1,57,174,107,,,,,,,,,,,,,,,,,,,,,,,,,,,,,,,,,,,,,346.694020899944,None,347.20973200001754,347.25970239995513,o,0.41106710000894964,347.20973200001754,None,,,,,,,,,,,,,,,,,,,,,8101992752,r,r,m,23,3,001,2022-03-07_22h08.46.789,HW1,2022.1.1,60.10485892365922,
60.bmp,"(-2, 6.92)","(7, 7)",1,58,175,81,,,,,,,,,,,,,,,,,,,,,,,,,,,,,,,,,,,,,347.64262950001284,None,348.14204499998596,348.19231219997164,p,0.45674930000677705,348.14204499998596,None,,,,,,,,,,,,,,,,,,,,,8101992752,r,r,m,23,3,001,2022-03-07_22h08.46.789,HW1,2022.1.1,60.10485892365922,
80.bmp,"(-6.06, -3.5)","(10.5, 10.5)",1,59,176,114,,,,,,,,,,,,,,,,,,,,,,,,,,,,,,,,,,,,,348.62546349992044,None,349.12484750000294,349.17460309993476,o,0.4067163000581786,349.12484750000294,None,,,,,,,,,,,,,,,,,,,,,8101992752,r,r,m,23,3,001,2022-03-07_22h08.46.789,HW1,2022.1.1,60.10485892365922,
40.bmp,"(0, -7)","(10.5, 10.5)",1,60,177,63,,,,,,,,,,,,,,,,,,,,,,,,,,,,,,,,,,,,,349.5576283999253,None,350.05718020000495,350.1072862999281,p,0.4165513999760151,350.05718020000495,None,,,,,,,,,,,,,,,,,,,,,8101992752,r,r,m,23,3,001,2022-03-07_22h08.46.789,HW1,2022.1.1,60.10485892365922,
0.bmp,"(-4, 0)","(7, 7)",1,61,178,4,,,,,,,,,,,,,,,,,,,,,,,,,,,,,,,,,,,,,350.4903552000178,None,350.9898413999472,351.0403421999654,o,0.4316328999120742,350.9898413999472,None,,,,,,,,,,,,,,,,,,,,,8101992752,r,r,m,23,3,001,2022-03-07_22h08.46.789,HW1,2022.1.1,60.10485892365922,
10.bmp,"(-4, 0)","(7, 7)",1,62,179,17,,,,,,,,,,,,,,,,,,,,,,,,,,,,,,,,,,,,,351.4393810000038,None,351.9390254999744,351.988761399989,p,0.54561949998606,351.9390254999744,None,,,,,,,,,,,,,,,,,,,,,8101992752,r,r,m,23,3,001,2022-03-07_22h08.46.789,HW1,2022.1.1,60.10485892365922,
40.bmp,"(-6.06, 3.5)","(10.5, 10.5)",1,63,180,61,,,,,,,,,,,,,,,,,,,,,,,,,,,,,,,,,,,,,352.5051910999464,None,353.0042914999649,353.05438509990927,p,0.6193668000632897,353.0042914999649,None,,,,,,,,,,,,,,,,,,,,,8101992752,r,r,m,23,3,001,2022-03-07_22h08.46.789,HW1,2022.1.1,60.10485892365922,
50.bmp,"(2, 6.92)","(7, 7)",1,64,181,67,,,,,,,,,,,,,,,,,,,,,,,,,,,,,,,,,,,,,353.65392680000514,None,354.15360469999723,354.20361979992595,p,0.4390865999739617,354.15360469999723,None,,,,,,,,,,,,,,,,,,,,,8101992752,r,r,m,23,3,001,2022-03-07_22h08.46.789,HW1,2022.1.1,60.10485892365922,
70.bmp,"(2, 6.92)","(7, 7)",1,65,182,93,,,,,,,,,,,,,,,,,,,,,,,,,,,,,,,,,,,,,354.61993819999043,None,355.1201756999362,355.16894789994694,o,0.37074469996150583,355.1201756999362,None,,,,,,,,,,,,,,,,,,,,,8101992752,r,r,m,23,3,001,2022-03-07_22h08.46.789,HW1,2022.1.1,60.10485892365922,
60.bmp,"(-6.06, 3.5)","(10.5, 10.5)",1,66,183,87,,,,,,,,,,,,,,,,,,,,,,,,,,,,,,,,,,,,,355.5192701999331,None,356.01861129992176,356.0687865000218,p,0.48070880002342165,356.01861129992176,None,,,,,,,,,,,,,,,,,,,,,8101992752,r,r,m,23,3,001,2022-03-07_22h08.46.789,HW1,2022.1.1,60.10485892365922,
50.bmp,"(-4, 0)","(7, 7)",1,67,184,69,,,,,,,,,,,,,,,,,,,,,,,,,,,,,,,,,,,,,356.51824859995395,None,357.0177022999851,357.0677888999926,o,0.42689279990736395,357.0177022999851,None,,,,,,,,,,,,,,,,,,,,,8101992752,r,r,m,23,3,001,2022-03-07_22h08.46.789,HW1,2022.1.1,60.10485892365922,
30.bmp,"(-2, 6.92)","(7, 7)",1,68,185,42,,,,,,,,,,,,,,,,,,,,,,,,,,,,,,,,,,,,,357.46716489992104,None,357.9672255999176,358.0169770999346,p,0.5134960000868887,357.9672255999176,None,,,,,,,,,,,,,,,,,,,,,8101992752,r,r,m,23,3,001,2022-03-07_22h08.46.789,HW1,2022.1.1,60.10485892365922,
20.bmp,"(-2, -6.92)","(7, 7)",1,69,186,31,,,,,,,,,,,,,,,,,,,,,,,,,,,,,,,,,,,,,358.4997784999432,None,358.9993389999727,359.04959229996894,p,0.8662150999298319,358.9993389999727,None,,,,,,,,,,,,,,,,,,,,,8101992752,r,r,m,23,3,001,2022-03-07_22h08.46.789,HW1,2022.1.1,60.10485892365922,
0.bmp,"(-6.06, 3.5)","(10.5, 10.5)",1,70,187,9,,,,,,,,,,,,,,,,,,,,,,,,,,,,,,,,,,,,,359.882085399935,None,360.3815718999831,360.43157189991325,p,0.347935099969618,360.3815718999831,None,,,,,,,,,,,,,,,,,,,,,8101992752,r,r,m,23,3,001,2022-03-07_22h08.46.789,HW1,2022.1.1,60.10485892365922,
40.bmp,"(0, 0)","(4.375, 4.375)",1,71,188,52,,,,,,,,,,,,,,,,,,,,,,,,,,,,,,,,,,,,,360.7481143999612,None,361.2474537999369,361.29745959991124,p,0.40656719997059554,361.2474537999369,None,,,,,,,,,,,,,,,,,,,,,8101992752,r,r,m,23,3,001,2022-03-07_22h08.46.789,HW1,2022.1.1,60.10485892365922,
80.bmp,"(0, 7)","(10.5, 10.5)",1,72,189,112,,,,,,,,,,,,,,,,,,,,,,,,,,,,,,,,,,,,,361.6803736999864,None,362.1801104999613,362.2297080999706,o,0.32643329992424697,362.1801104999613,None,,,,,,,,,,,,,,,,,,,,,8101992752,r,r,m,23,3,001,2022-03-07_22h08.46.789,HW1,2022.1.1,60.10485892365922,
0.bmp,"(6.06, -3.5)","(10.5, 10.5)",1,73,190,12,,,,,,,,,,,,,,,,,,,,,,,,,,,,,,,,,,,,,362.5296197999269,None,363.0291716000065,363.079415999935,p,0.28532030002679676,363.0291716000065,None,,,,,,,,,,,,,,,,,,,,,8101992752,r,r,m,23,3,001,2022-03-07_22h08.46.789,HW1,2022.1.1,60.10485892365922,
10.bmp,"(6.06, -3.5)","(10.5, 10.5)",1,74,191,25,,,,,,,,,,,,,,,,,,,,,,,,,,,,,,,,,,,,,363.3457431999268,None,363.84516979998443,363.89519529999234,o,0.22512879990972579,363.84516979998443,None,,,,,,,,,,,,,,,,,,,,,8101992752,r,r,m,23,3,001,2022-03-07_22h08.46.789,HW1,2022.1.1,60.10485892365922,
70.bmp,"(2, -6.92)","(7, 7)",1,75,192,97,,,,,,,,,,,,,,,,,,,,,,,,,,,,,,,,,,,,,364.09461189992726,None,364.5944220999954,364.6446264999686,p,0.26134180009830743,364.5944220999954,None,,,,,,,,,,,,,,,,,,,,,8101992752,r,r,m,23,3,001,2022-03-07_22h08.46.789,HW1,2022.1.1,60.10485892365922,
30.bmp,"(0, 7)","(10.5, 10.5)",1,76,193,47,,,,,,,,,,,,,,,,,,,,,,,,,,,,,,,,,,,,,364.87756699998863,None,365.377203800017,365.4274176999461,o,0.3026094000088051,365.377203800017,None,,,,,,,,,,,,,,,,,,,,,8101992752,r,r,m,23,3,001,2022-03-07_22h08.46.789,HW1,2022.1.1,60.10485892365922,
20.bmp,"(6.06, 3.5)","(10.5, 10.5)",1,77,194,33,,,,,,,,,,,,,,,,,,,,,,,,,,,,,,,,,,,,,365.71001339994837,None,366.2098859999096,366.2593511999585,p,0.2163189999992028,366.2098859999096,None,,,,,,,,,,,,,,,,,,,,,8101992752,r,r,m,23,3,001,2022-03-07_22h08.46.789,HW1,2022.1.1,60.10485892365922,
70.bmp,"(-6.06, -3.5)","(10.5, 10.5)",1,78,195,101,,,,,,,,,,,,,,,,,,,,,,,,,,,,,,,,,,,,,366.4426852000179,None,366.94270199991297,366.9923799999524,o,0.12107019999530166,366.94270199991297,None,,,,,,,,,,,,,,,,,,,,,8101992752,r,r,m,23,3,001,2022-03-07_22h08.46.789,HW1,2022.1.1,60.10485892365922,
70.bmp,"(-6.06, 3.5)","(10.5, 10.5)",1,79,196,100,,,,,,,,,,,,,,,,,,,,,,,,,,,,,,,,,,,,,367.0924365000101,None,367.5919595999876,367.64179999998305,p,0.14054330007638782,367.5919595999876,None,,,,,,,,,,,,,,,,,,,,,8101992752,r,r,m,23,3,001,2022-03-07_22h08.46.789,HW1,2022.1.1,60.10485892365922,
60.bmp,"(2, -6.92)","(7, 7)",1,80,197,84,,,,,,,,,,,,,,,,,,,,,,,,,,,,,,,,,,,,,367.75826539995614,None,368.2583086999366,368.30777860002127,o,0.14768829999957234,368.2583086999366,None,,,,,,,,,,,,,,,,,,,,,8101992752,r,r,m,23,3,001,2022-03-07_22h08.46.789,HW1,2022.1.1,60.10485892365922,
50.bmp,"(0, 0)","(4.375, 4.375)",1,81,198,65,,,,,,,,,,,,,,,,,,,,,,,,,,,,,,,,,,,,,368.4244792999234,None,368.92426090000663,368.9740252000047,p,0.07149769994430244,368.92426090000663,None,,,,,,,,,,,,,,,,,,,,,8101992752,r,r,m,23,3,001,2022-03-07_22h08.46.789,HW1,2022.1.1,60.10485892365922,
80.bmp,"(0, 0)","(4.375, 4.375)",1,82,199,104,,,,,,,,,,,,,,,,,,,,,,,,,,,,,,,,,,,,,369.0241105000023,None,369.52383419999387,369.5735188999679,o,0.1864911001175642,369.52383419999387,None,,,,,,,,,,,,,,,,,,,,,8101992752,r,r,m,23,3,001,2022-03-07_22h08.46.789,HW1,2022.1.1,60.10485892365922,
60.bmp,"(0, -7)","(10.5, 10.5)",1,83,200,89,,,,,,,,,,,,,,,,,,,,,,,,,,,,,,,,,,,,,369.7400247999467,None,370.23952509998344,370.2896562999813,p,0.1594473000150174,370.23952509998344,None,,,,,,,,,,,,,,,,,,,,,8101992752,r,r,m,23,3,001,2022-03-07_22h08.46.789,HW1,2022.1.1,60.10485892365922,
30.bmp,"(0, -7)","(10.5, 10.5)",1,84,201,50,,,,,,,,,,,,,,,,,,,,,,,,,,,,,,,,,,,,,370.42282749991864,None,370.92200399993453,370.97220459999517,o,0.20585649996064603,370.92200399993453,None,,,,,,,,,,,,,,,,,,,,,8101992752,r,r,m,23,3,001,2022-03-07_22h08.46.789,HW1,2022.1.1,60.10485892365922,
20.bmp,"(6.06, -3.5)","(10.5, 10.5)",1,85,202,38,,,,,,,,,,,,,,,,,,,,,,,,,,,,,,,,,,,,,371.1555042999098,None,371.65531429997645,371.7048733999254,p,0.13056319998577237,371.65531429997645,None,,,,,,,,,,,,,,,,,,,,,8101992752,r,r,m,23,3,001,2022-03-07_22h08.46.789,HW1,2022.1.1,60.10485892365922,
60.bmp,"(-6.06, -3.5)","(10.5, 10.5)",1,86,203,88,,,,,,,,,,,,,,,,,,,,,,,,,,,,,,,,,,,,,371.8048768999288,None,372.3046059999615,372.35424769995734,o,0.15678920003119856,372.3046059999615,None,,,,,,,,,,,,,,,,,,,,,8101992752,r,r,m,23,3,001,2022-03-07_22h08.46.789,HW1,2022.1.1,60.10485892365922,
30.bmp,"(2, 6.92)","(7, 7)",1,87,204,41,,,,,,,,,,,,,,,,,,,,,,,,,,,,,,,,,,,,,372.48771709995344,None,372.9869754000101,373.0367579999147,p,0.15745719999540597,372.9869754000101,None,,,,,,,,,,,,,,,,,,,,,8101992752,r,r,m,23,3,001,2022-03-07_22h08.46.789,HW1,2022.1.1,60.10485892365922,
60.bmp,"(4, 0)","(7, 7)",1,88,205,79,,,,,,,,,,,,,,,,,,,,,,,,,,,,,,,,,,,,,373.1699373999145,None,373.67002239997964,373.719857799937,o,0.2273794999346137,373.67002239997964,None,,,,,,,,,,,,,,,,,,,,,8101992752,r,r,m,23,3,001,2022-03-07_22h08.46.789,HW1,2022.1.1,60.10485892365922,
30.bmp,"(-2, -6.92)","(7, 7)",1,89,206,44,,,,,,,,,,,,,,,,,,,,,,,,,,,,,,,,,,,,,373.91977629996836,None,374.41896649997216,374.4694713000208,p,0.17012260004412383,374.41896649997216,None,,,,,,,,,,,,,,,,,,,,,8101992752,r,r,m,23,3,001,2022-03-07_22h08.46.789,HW1,2022.1.1,60.10485892365922,
10.bmp,"(-2, 6.92)","(7, 7)",1,90,207,16,,,,,,,,,,,,,,,,,,,,,,,,,,,,,,,,,,,,,374.61904989997856,None,375.1188108000206,375.16869999992196,p,0.1582658999832347,375.1188108000206,None,,,,,,,,,,,,,,,,,,,,,8101992752,r,r,m,23,3,001,2022-03-07_22h08.46.789,HW1,2022.1.1,60.10485892365922,
60.bmp,"(2, 6.92)","(7, 7)",1,91,208,80,,,,,,,,,,,,,,,,,,,,,,,,,,,,,,,,,,,,,375.30147029994987,None,375.80140389990993,375.85142059996724,o,0.1016243000049144,375.80140389990993,None,,,,,,,,,,,,,,,,,,,,,8101992752,r,r,m,23,3,001,2022-03-07_22h08.46.789,HW1,2022.1.1,60.10485892365922,
0.bmp,"(2, -6.92)","(7, 7)",1,92,209,6,,,,,,,,,,,,,,,,,,,,,,,,,,,,,,,,,,,,,375.93483389995527,None,376.43432789994404,376.48396969994064,p,0.05999440001323819,376.43432789994404,None,,,,,,,,,,,,,,,,,,,,,8101992752,r,r,m,23,3,001,2022-03-07_22h08.46.789,HW1,2022.1.1,60.10485892365922,
10.bmp,"(0, 7)","(10.5, 10.5)",1,93,210,21,,,,,,,,,,,,,,,,,,,,,,,,,,,,,,,,,,,,,376.51736890000757,None,377.0171746999258,377.0670977999689,o,0.0806429999647662,377.0171746999258,None,,,,,,,,,,,,,,,,,,,,,8101992752,r,r,m,23,3,001,2022-03-07_22h08.46.789,HW1,2022.1.1,60.10485892365922,
40.bmp,"(4, 0)","(7, 7)",1,94,211,53,,,,,,,,,,,,,,,,,,,,,,,,,,,,,,,,,,,,,377.11711699992884,None,377.6160148999188,377.66618469997775,p,0.08347549999598414,377.6160148999188,None,,,,,,,,,,,,,,,,,,,,,8101992752,r,r,m,23,3,001,2022-03-07_22h08.46.789,HW1,2022.1.1,60.10485892365922,
60.bmp,"(6.06, 3.5)","(10.5, 10.5)",1,95,212,85,,,,,,,,,,,,,,,,,,,,,,,,,,,,,,,,,,,,,377.71649399993476,None,378.2160697999643,378.266109899967,o,0.04742439999245107,378.2160697999643,None,,,,,,,,,,,,,,,,,,,,,8101992752,r,r,m,23,3,001,2022-03-07_22h08.46.789,HW1,2022.1.1,60.10485892365922,
60.bmp,"(6.06, -3.5)","(10.5, 10.5)",1,96,213,90,,,,,,,,,,,,,,,,,,,,,,,,,,,,,,,,,,,,,378.2827301999787,None,378.78198670002166,378.83209029992577,p,0.1698044000659138,378.78198670002166,None,,,,,,,,,,,,,,,,,,,,,8101992752,r,r,m,23,3,001,2022-03-07_22h08.46.789,HW1,2022.1.1,60.10485892365922,
50.bmp,"(0, 7)","(10.5, 10.5)",1,97,214,73,,,,,,,,,,,,,,,,,,,,,,,,,,,,,,,,,,,,,378.9821162999142,None,379.48154339997564,379.531389700016,p,0.3633899000706151,379.48154339997564,None,,,,,,,,,,,,,,,,,,,,,8101992752,r,r,m,23,3,001,2022-03-07_22h08.46.789,HW1,2022.1.1,60.10485892365922,
0.bmp,"(4, 0)","(7, 7)",1,98,215,1,,,,,,,,,,,,,,,,,,,,,,,,,,,,,,,,,,,,,379.86422210000455,None,380.3640024999622,380.4139259000076,o,0.37503200001083314,380.3640024999622,None,,,,,,,,,,,,,,,,,,,,,8101992752,r,r,m,23,3,001,2022-03-07_22h08.46.789,HW1,2022.1.1,60.10485892365922,
10.bmp,"(2, -6.92)","(7, 7)",1,99,216,19,,,,,,,,,,,,,,,,,,,,,,,,,,,,,,,,,,,,,380.76343599997927,None,381.2632353999652,381.313270399929,o,0.3906499999575317,381.2632353999652,None,,,,,,,,,,,,,,,,,,,,,8101992752,r,r,m,23,3,001,2022-03-07_22h08.46.789,HW1,2022.1.1,60.10485892365922,
20.bmp,"(-4, 0)","(7, 7)",1,100,217,30,,,,,,,,,,,,,,,,,,,,,,,,,,,,,,,,,,,,,381.67963459994644,None,382.1791529000038,382.2289874999551,p,0.5504192999796942,382.1791529000038,None,,,,,,,,,,,,,,,,,,,,,8101992752,r,r,m,23,3,001,2022-03-07_22h08.46.789,HW1,2022.1.1,60.10485892365922,
0.bmp,"(0, 7)","(10.5, 10.5)",1,101,218,8,,,,,,,,,,,,,,,,,,,,,,,,,,,,,,,,,,,,,382.7620568999555,None,383.2617899000179,383.3116604000097,o,0.3600657999049872,383.2617899000179,None,,,,,,,,,,,,,,,,,,,,,8101992752,r,r,m,23,3,001,2022-03-07_22h08.46.789,HW1,2022.1.1,60.10485892365922,
30.bmp,"(6.06, 3.5)","(10.5, 10.5)",1,102,219,46,,,,,,,,,,,,,,,,,,,,,,,,,,,,,,,,,,,,,383.6445113000227,None,384.1444243999431,384.1937073000008,p,0.3912343999836594,384.1444243999431,None,,,,,,,,,,,,,,,,,,,,,8101992752,r,r,m,23,3,001,2022-03-07_22h08.46.789,HW1,2022.1.1,60.10485892365922,
20.bmp,"(4, 0)","(7, 7)",1,103,220,27,,,,,,,,,,,,,,,,,,,,,,,,,,,,,,,,,,,,,384.56054099998437,None,385.0600352999754,385.11004449997563,o,0.3277436000062153,385.0600352999754,None,,,,,,,,,,,,,,,,,,,,,8101992752,r,r,m,23,3,001,2022-03-07_22h08.46.789,HW1,2022.1.1,60.10485892365922,
80.bmp,"(6.06, -3.5)","(10.5, 10.5)",1,104,221,116,,,,,,,,,,,,,,,,,,,,,,,,,,,,,,,,,,,,,385.4102377999807,None,385.9090544999344,385.9592950999504,p,0.4620084000052884,385.9090544999344,None,,,,,,,,,,,,,,,,,,,,,8101992752,r,r,m,23,3,001,2022-03-07_22h08.46.789,HW1,2022.1.1,60.10485892365922,
70.bmp,"(-4, 0)","(7, 7)",1,105,222,95,,,,,,,,,,,,,,,,,,,,,,,,,,,,,,,,,,,,,386.39203360001557,None,386.89202219992876,386.9416203999426,o,0.3359789999667555,386.89202219992876,None,,,,,,,,,,,,,,,,,,,,,8101992752,r,r,m,23,3,001,2022-03-07_22h08.46.789,HW1,2022.1.1,60.10485892365922,
0.bmp,"(0, 0)","(4.375, 4.375)",1,106,223,0,,,,,,,,,,,,,,,,,,,,,,,,,,,,,,,,,,,,,387.2581392999273,None,387.75775539991446,387.80763759999536,p,0.506458800053224,387.75775539991446,None,,,,,,,,,,,,,,,,,,,,,8101992752,r,r,m,23,3,001,2022-03-07_22h08.46.789,HW1,2022.1.1,60.10485892365922,
10.bmp,"(4, 0)","(7, 7)",1,107,224,14,,,,,,,,,,,,,,,,,,,,,,,,,,,,,,,,,,,,,388.2907963999314,None,388.78976219997276,388.8395603999961,p,0.4367333999834955,388.78976219997276,None,,,,,,,,,,,,,,,,,,,,,8101992752,r,r,m,23,3,001,2022-03-07_22h08.46.789,HW1,2022.1.1,60.10485892365922,
70.bmp,"(-2, 6.92)","(7, 7)",1,108,225,94,,,,,,,,,,,,,,,,,,,,,,,,,,,,,,,,,,,,,389.25608720001765,None,389.7559168000007,389.8058063000208,o,0.2998453000327572,389.7559168000007,None,,,,,,,,,,,,,,,,,,,,,8101992752,r,r,m,23,3,001,2022-03-07_22h08.46.789,HW1,2022.1.1,60.10485892365922,
40.bmp,"(2, -6.92)","(7, 7)",1,109,226,58,,,,,,,,,,,,,,,,,,,,,,,,,,,,,,,,,,,,,390.0723090999527,None,390.572267999989,390.6218976000091,p,0.3242441000184044,390.572267999989,None,,,,,,,,,,,,,,,,,,,,,8101992752,r,r,m,23,3,001,2022-03-07_22h08.46.789,HW1,2022.1.1,60.10485892365922,
30.bmp,"(-6.06, -3.5)","(10.5, 10.5)",1,110,227,49,,,,,,,,,,,,,,,,,,,,,,,,,,,,,,,,,,,,,390.9210946999956,None,391.42100169998594,391.47080180002376,o,0.28647980000823736,391.42100169998594,None,,,,,,,,,,,,,,,,,,,,,8101992752,r,r,m,23,3,001,2022-03-07_22h08.46.789,HW1,2022.1.1,60.10485892365922,
20.bmp,"(-6.06, -3.5)","(10.5, 10.5)",1,111,228,36,,,,,,,,,,,,,,,,,,,,,,,,,,,,,,,,,,,,,391.737571900012,None,392.23704469995573,392.28713229997084,p,0.3570510999998078,392.23704469995573,None,,,,,,,,,,,,,,,,,,,,,8101992752,r,r,m,23,3,001,2022-03-07_22h08.46.789,HW1,2022.1.1,60.10485892365922,
0.bmp,"(-2, -6.92)","(7, 7)",1,112,229,5,,,,,,,,,,,,,,,,,,,,,,,,,,,,,,,,,,,,,392.62010369997006,None,393.11977340001613,393.16941079997923,o,0.31680040003266186,393.11977340001613,None,,,,,,,,,,,,,,,,,,,,,8101992752,r,r,m,23,3,001,2022-03-07_22h08.46.789,HW1,2022.1.1,60.10485892365922,
70.bmp,"(-2, -6.92)","(7, 7)",1,113,230,96,,,,,,,,,,,,,,,,,,,,,,,,,,,,,,,,,,,,,393.4527047999436,None,393.9521865999559,394.00215449999087,p,0.3194021999370307,393.9521865999559,None,,,,,,,,,,,,,,,,,,,,,8101992752,r,r,m,23,3,001,2022-03-07_22h08.46.789,HW1,2022.1.1,60.10485892365922,
80.bmp,"(-2, -6.92)","(7, 7)",1,114,231,109,,,,,,,,,,,,,,,,,,,,,,,,,,,,,,,,,,,,,394.3017958999844,None,394.8015172999585,394.851476599928,o,0.2870894999941811,394.8015172999585,None,,,,,,,,,,,,,,,,,,,,,8101992752,r,r,m,23,3,001,2022-03-07_22h08.46.789,HW1,2022.1.1,60.10485892365922,
10.bmp,"(6.06, 3.5)","(10.5, 10.5)",1,115,232,20,,,,,,,,,,,,,,,,,,,,,,,,,,,,,,,,,,,,,395.1179023999721,None,395.6176911999937,395.6674480999354,p,0.44711059995461255,395.6176911999937,None,,,,,,,,,,,,,,,,,,,,,8101992752,r,r,m,23,3,001,2022-03-07_22h08.46.789,HW1,2022.1.1,60.10485892365922,
40.bmp,"(2, 6.92)","(7, 7)",1,116,233,54,,,,,,,,,,,,,,,,,,,,,,,,,,,,,,,,,,,,,396.08358530001715,None,396.5833617999451,396.63351840001997,o,0.41540039994288236,396.5833617999451,None,,,,,,,,,,,,,,,,,,,,,8101992752,r,r,m,23,3,001,2022-03-07_22h08.46.789,HW1,2022.1.1,60.10485892365922,
,,,,,,,,,,,,,,,,,,,,,,,,,,,,,,,,,,,,,,,,,,,,,,,,,,,397.01654390001204,None,space,204.15245390008204,397.01654390001204,None,,,,,,,,,,,,,,,8101992752,r,r,m,23,3,001,2022-03-07_22h08.46.789,HW1,2022.1.1,60.10485892365922,
,,,,,,,,,,,,,,,,,,,,,,,,,,,,,,,,,,,,,,,,,,,,,,,,,,,,,,,,,601.1879025999224,None,space,17.98927550006192,601.1879025999224,None,,,,,,,,,8101992752,r,r,m,23,3,001,2022-03-07_22h08.46.789,HW1,2022.1.1,60.10485892365922,
20.bmp,"(0, -7)","(10.5, 10.5)",,,,,0,0,0,37,,,,,,,,,,,,,,,,,,,,,,,,,,,,,,,,,619.2269958999241,None,,,,,,,,,,,,,,,,,,,619.7218198999763,619.771646499983,w,1.2264188999542966,619.7218198999763,None,,,8101992752,r,r,m,23,3,001,2022-03-07_22h08.46.789,HW1,2022.1.1,60.10485892365922,
20.bmp,"(-6.06, 3.5)","(10.5, 10.5)",,,,,0,1,1,35,,,,,,,,,,,,,,,,,,,,,,,,,,,,,,,,,620.9705788999563,None,,,,,,,,,,,,,,,,,,,621.4704356999137,621.5201815000037,w,1.1402002000249922,621.4704356999137,None,,,8101992752,r,r,m,23,3,001,2022-03-07_22h08.46.789,HW1,2022.1.1,60.10485892365922,
20.bmp,"(6.06, -3.5)","(10.5, 10.5)",,,,,0,2,2,38,,,,,,,,,,,,,,,,,,,,,,,,,,,,,,,,,622.6359401999507,None,,,,,,,,,,,,,,,,,,,623.1357774999924,623.185402699979,w,1.0011602999875322,623.1357774999924,None,,,8101992752,r,r,m,23,3,001,2022-03-07_22h08.46.789,HW1,2022.1.1,60.10485892365922,
40.bmp,"(-2, 6.92)","(7, 7)",,,,,0,3,3,55,,,,,,,,,,,,,,,,,,,,,,,,,,,,,,,,,624.1679966999218,None,,,,,,,,,,,,,,,,,,,624.6674436000176,624.7174176999833,w,1.1399697000160813,624.6674436000176,None,,,8101992752,r,r,m,23,3,001,2022-03-07_22h08.46.789,HW1,2022.1.1,60.10485892365922,
70.bmp,"(6.06, -3.5)","(10.5, 10.5)",,,,,0,4,4,103,,,,,,,,,,,,,,,,,,,,,,,,,,,,,,,,,625.8330487000057,None,,,,,,,,,,,,,,,,,,,626.332708699978,626.3825995000079,q,0.8355152999283746,626.332708699978,None,,,8101992752,r,r,m,23,3,001,2022-03-07_22h08.46.789,HW1,2022.1.1,60.10485892365922,
10.bmp,"(6.06, -3.5)","(10.5, 10.5)",,,,,0,5,5,25,,,,,,,,,,,,,,,,,,,,,,,,,,,,,,,,,627.1984463999979,None,,,,,,,,,,,,,,,,,,,627.7142820999725,627.764694100013,q,1.0496499000582844,627.7142820999725,None,,,8101992752,r,r,m,23,3,001,2022-03-07_22h08.46.789,HW1,2022.1.1,60.10485892365922,
10.bmp,"(2, 6.92)","(7, 7)",,,,,0,6,6,15,,,,,,,,,,,,,,,,,,,,,,,,,,,,,,,,,628.7804319999414,None,,,,,,,,,,,,,,,,,,,629.2802419000072,629.3299893999938,q,1.1424222000641748,629.2802419000072,None,,,8101992752,r,r,m,23,3,001,2022-03-07_22h08.46.789,HW1,2022.1.1,60.10485892365922,
10.bmp,"(-4, 0)","(7, 7)",,,,,0,7,7,17,,,,,,,,,,,,,,,,,,,,,,,,,,,,,,,,,630.4456883999519,None,,,,,,,,,,,,,,,,,,,630.9454035999952,630.9954235999612,q,0.8063022000715137,630.9454035999952,None,,,8101992752,r,r,m,23,3,001,2022-03-07_22h08.46.789,HW1,2022.1.1,60.10485892365922,
0.bmp,"(-2, 6.92)","(7, 7)",,,,,0,8,8,3,,,,,,,,,,,,,,,,,,,,,,,,,,,,,,,,,631.7779739999678,None,,,,,,,,,,,,,,,,,,,632.2772514999378,632.3275245999685,q,2.992898100055754,632.2772514999378,None,,,8101992752,r,r,m,23,3,001,2022-03-07_22h08.46.789,HW1,2022.1.1,60.10485892365922,
70.bmp,"(-2, -6.92)","(7, 7)",,,,,0,9,9,96,,,,,,,,,,,,,,,,,,,,,,,,,,,,,,,,,635.2913667999674,None,,,,,,,,,,,,,,,,,,,635.7906440999359,635.8410027999198,q,1.2927722999593243,635.7906440999359,None,,,8101992752,r,r,m,23,3,001,2022-03-07_22h08.46.789,HW1,2022.1.1,60.10485892365922,
50.bmp,"(4, 0)","(7, 7)",,,,,0,10,10,66,,,,,,,,,,,,,,,,,,,,,,,,,,,,,,,,,637.1068373000016,None,,,,,,,,,,,,,,,,,,,637.6064181999536,637.6561045999406,w,0.9161793999373913,637.6064181999536,None,,,8101992752,r,r,m,23,3,001,2022-03-07_22h08.46.789,HW1,2022.1.1,60.10485892365922,
30.bmp,"(-6.06, 3.5)","(10.5, 10.5)",,,,,0,11,11,48,,,,,,,,,,,,,,,,,,,,,,,,,,,,,,,,,638.555447599967,None,,,,,,,,,,,,,,,,,,,639.0546511999564,639.105006699916,w,0.8565382999368012,639.0546511999564,None,,,8101992752,r,r,m,23,3,001,2022-03-07_22h08.46.789,HW1,2022.1.1,60.10485892365922,
50.bmp,"(-2, -6.92)","(7, 7)",,,,,0,12,12,70,,,,,,,,,,,,,,,,,,,,,,,,,,,,,,,,,639.9377250999678,None,,,,,,,,,,,,,,,,,,,640.4372807999607,640.4868906999473,q,1.057734000030905,640.4372807999607,None,,,8101992752,r,r,m,23,3,001,2022-03-07_22h08.46.789,HW1,2022.1.1,60.10485892365922,
60.bmp,"(6.06, 3.5)","(10.5, 10.5)",,,,,0,13,13,85,,,,,,,,,,,,,,,,,,,,,,,,,,,,,,,,,641.5193795999512,None,,,,,,,,,,,,,,,,,,,642.0189990999643,642.0690012999112,w,0.9999234999995679,642.0189990999643,None,,,8101992752,r,r,m,23,3,001,2022-03-07_22h08.46.789,HW1,2022.1.1,60.10485892365922,
80.bmp,"(4, 0)","(7, 7)",,,,,0,14,14,105,,,,,,,,,,,,,,,,,,,,,,,,,,,,,,,,,643.0513361999765,None,,,,,,,,,,,,,,,,,,,643.5514428999741,643.6008761000121,w,2.4846998000284657,643.5514428999741,None,,,8101992752,r,r,m,23,3,001,2022-03-07_22h08.46.789,HW1,2022.1.1,60.10485892365922,
30.bmp,"(-2, -6.92)","(7, 7)",,,,,0,15,15,44,,,,,,,,,,,,,,,,,,,,,,,,,,,,,,,,,646.0652460999554,None,,,,,,,,,,,,,,,,,,,646.5649674999295,646.614930999931,q,1.2842033000197262,646.5649674999295,None,,,8101992752,r,r,m,23,3,001,2022-03-07_22h08.46.789,HW1,2022.1.1,60.10485892365922,
0.bmp,"(6.06, -3.5)","(10.5, 10.5)",,,,,0,16,16,12,,,,,,,,,,,,,,,,,,,,,,,,,,,,,,,,,647.8804365999531,None,,,,,,,,,,,,,,,,,,,648.379900299944,648.4301850999473,q,1.2909321000333875,648.379900299944,None,,,8101992752,r,r,m,23,3,001,2022-03-07_22h08.46.789,HW1,2022.1.1,60.10485892365922,
60.bmp,"(2, -6.92)","(7, 7)",,,,,0,17,17,84,,,,,,,,,,,,,,,,,,,,,,,,,,,,,,,,,649.6953535999637,None,,,,,,,,,,,,,,,,,,,650.1951574999839,650.2448792000068,q,0.9240393000654876,650.1951574999839,None,,,8101992752,r,r,m,23,3,001,2022-03-07_22h08.46.789,HW1,2022.1.1,60.10485892365922,
0.bmp,"(2, -6.92)","(7, 7)",,,,,0,18,18,6,,,,,,,,,,,,,,,,,,,,,,,,,,,,,,,,,651.144074199954,None,,,,,,,,,,,,,,,,,,,651.6438500999939,651.6941363000078,w,1.601111099938862,651.6438500999939,None,,,8101992752,r,r,m,23,3,001,2022-03-07_22h08.46.789,HW1,2022.1.1,60.10485892365922,
30.bmp,"(2, -6.92)","(7, 7)",,,,,0,19,19,45,,,,,,,,,,,,,,,,,,,,,,,,,,,,,,,,,653.2759084999561,None,,,,,,,,,,,,,,,,,,,653.7752304999158,653.8253501999425,w,1.1861147000454366,653.7752304999158,None,,,8101992752,r,r,m,23,3,001,2022-03-07_22h08.46.789,HW1,2022.1.1,60.10485892365922,
60.bmp,"(2, 6.92)","(7, 7)",,,,,0,20,20,80,,,,,,,,,,,,,,,,,,,,,,,,,,,,,,,,,654.9909462999785,None,,,,,,,,,,,,,,,,,,,655.4903965999838,655.5405068999389,w,1.7633565000724047,655.4903965999838,None,,,8101992752,r,r,m,23,3,001,2022-03-07_22h08.46.789,HW1,2022.1.1,60.10485892365922,
30.bmp,"(2, 6.92)","(7, 7)",,,,,0,21,21,41,,,,,,,,,,,,,,,,,,,,,,,,,,,,,,,,,657.2723374000052,None,,,,,,,,,,,,,,,,,,,657.7717605999205,657.8219308999833,w,1.0871448999969289,657.7717605999205,None,,,8101992752,r,r,m,23,3,001,2022-03-07_22h08.46.789,HW1,2022.1.1,60.10485892365922,
20.bmp,"(0, 7)","(10.5, 10.5)",,,,,0,22,22,34,,,,,,,,,,,,,,,,,,,,,,,,,,,,,,,,,658.887613400002,None,,,,,,,,,,,,,,,,,,,659.3874055999331,659.4370060999645,w,0.8704656000481918,659.3874055999331,None,,,8101992752,r,r,m,23,3,001,2022-03-07_22h08.46.789,HW1,2022.1.1,60.10485892365922,
70.bmp,"(4, 0)","(7, 7)",,,,,0,23,23,92,,,,,,,,,,,,,,,,,,,,,,,,,,,,,,,,,660.2863884000108,None,,,,,,,,,,,,,,,,,,,660.7861829999601,660.8359786999645,w,1.2658457999350503,660.7861829999601,None,,,8101992752,r,r,m,23,3,001,2022-03-07_22h08.46.789,HW1,2022.1.1,60.10485892365922,
60.bmp,"(4, 0)","(7, 7)",,,,,0,24,24,79,,,,,,,,,,,,,,,,,,,,,,,,,,,,,,,,,662.0680148999672,None,,,,,,,,,,,,,,,,,,,662.5673308999976,662.6172796000028,q,1.2361073000356555,662.5673308999976,None,,,8101992752,r,r,m,23,3,001,2022-03-07_22h08.46.789,HW1,2022.1.1,60.10485892365922,
70.bmp,"(0, -7)","(10.5, 10.5)",,,,,0,25,25,102,,,,,,,,,,,,,,,,,,,,,,,,,,,,,,,,,663.8333648999687,None,,,,,,,,,,,,,,,,,,,664.3328486999962,664.3826857999666,w,0.7396167000988498,664.3328486999962,None,,,8101992752,r,r,m,23,3,001,2022-03-07_22h08.46.789,HW1,2022.1.1,60.10485892365922,
30.bmp,"(-2, 6.92)","(7, 7)",,,,,0,26,26,42,,,,,,,,,,,,,,,,,,,,,,,,,,,,,,,,,665.0987253999338,None,,,,,,,,,,,,,,,,,,,665.5984373999527,665.6485518999398,q,0.7583815000252798,665.5984373999527,None,,,8101992752,r,r,m,23,3,001,2022-03-07_22h08.46.789,HW1,2022.1.1,60.10485892365922,
70.bmp,"(0, 0)","(4.375, 4.375)",,,,,0,27,27,91,,,,,,,,,,,,,,,,,,,,,,,,,,,,,,,,,666.3810100000119,None,,,,,,,,,,,,,,,,,,,666.8808677999768,666.9302989999996,w,1.2949713999405503,666.8808677999768,None,,,8101992752,r,r,m,23,3,001,2022-03-07_22h08.46.789,HW1,2022.1.1,60.10485892365922,
60.bmp,"(-2, -6.92)","(7, 7)",,,,,0,28,28,83,,,,,,,,,,,,,,,,,,,,,,,,,,,,,,,,,668.1961691000033,None,,,,,,,,,,,,,,,,,,,668.6955410999944,668.7452813999262,q,1.319311499944888,668.6955410999944,None,,,8101992752,r,r,m,23,3,001,2022-03-07_22h08.46.789,HW1,2022.1.1,60.10485892365922,
40.bmp,"(2, -6.92)","(7, 7)",,,,,0,29,29,58,,,,,,,,,,,,,,,,,,,,,,,,,,,,,,,,,670.0445719999261,None,,,,,,,,,,,,,,,,,,,670.5441400000127,670.5941770999925,w,0.6221981999697164,670.5441400000127,None,,,8101992752,r,r,m,23,3,001,2022-03-07_22h08.46.789,HW1,2022.1.1,60.10485892365922,
70.bmp,"(-4, 0)","(7, 7)",,,,,0,30,30,95,,,,,,,,,,,,,,,,,,,,,,,,,,,,,,,,,671.193429099978,None,,,,,,,,,,,,,,,,,,,671.6927209999412,671.7428268999793,q,0.4837680999189615,671.6927209999412,None,,,8101992752,r,r,m,23,3,001,2022-03-07_22h08.46.789,HW1,2022.1.1,60.10485892365922,
80.bmp,"(-2, -6.92)","(7, 7)",,,,,0,31,31,109,,,,,,,,,,,,,,,,,,,,,,,,,,,,,,,,,672.2091010999866,None,,,,,,,,,,,,,,,,,,,672.7089048000053,672.758670900017,w,0.39445840008556843,672.7089048000053,None,,,8101992752,r,r,m,23,3,001,2022-03-07_22h08.46.789,HW1,2022.1.1,60.10485892365922,
10.bmp,"(6.06, 3.5)","(10.5, 10.5)",,,,,0,32,32,20,,,,,,,,,,,,,,,,,,,,,,,,,,,,,,,,,673.1249492999632,None,,,,,,,,,,,,,,,,,,,673.6245782999322,673.6744064999511,w,0.4754656000295654,673.6245782999322,None,,,8101992752,r,r,m,23,3,001,2022-03-07_22h08.46.789,HW1,2022.1.1,60.10485892365922,
50.bmp,"(0, 0)","(4.375, 4.375)",,,,,0,33,33,65,,,,,,,,,,,,,,,,,,,,,,,,,,,,,,,,,674.1241649999283,None,,,,,,,,,,,,,,,,,,,674.6240646999795,674.6739772999426,q,0.39089849998708814,674.6240646999795,None,,,8101992752,r,r,m,23,3,001,2022-03-07_22h08.46.789,HW1,2022.1.1,60.10485892365922,
40.bmp,"(6.06, -3.5)","(10.5, 10.5)",,,,,0,34,34,64,,,,,,,,,,,,,,,,,,,,,,,,,,,,,,,,,675.0402240999974,None,,,,,,,,,,,,,,,,,,,675.5397155999672,675.5896928999573,w,0.2624534999486059,675.5397155999672,None,,,8101992752,r,r,m,23,3,001,2022-03-07_22h08.46.789,HW1,2022.1.1,60.10485892365922,
0.bmp,"(-4, 0)","(7, 7)",,,,,0,35,35,4,,,,,,,,,,,,,,,,,,,,,,,,,,,,,,,,,675.8229895000113,None,,,,,,,,,,,,,,,,,,,676.3223397999536,676.3726907999953,q,0.29902819998096675,676.3223397999536,None,,,8101992752,r,r,m,23,3,001,2022-03-07_22h08.46.789,HW1,2022.1.1,60.10485892365922,
0.bmp,"(-6.06, 3.5)","(10.5, 10.5)",,,,,0,36,36,9,,,,,,,,,,,,,,,,,,,,,,,,,,,,,,,,,676.6385978999315,None,,,,,,,,,,,,,,,,,,,677.1385157000041,677.1883232999826,w,0.31697729998268187,677.1385157000041,None,,,8101992752,r,r,m,23,3,001,2022-03-07_22h08.46.789,HW1,2022.1.1,60.10485892365922,
50.bmp,"(-4, 0)","(7, 7)",,,,,0,37,37,69,,,,,,,,,,,,,,,,,,,,,,,,,,,,,,,,,677.4880564999767,None,,,,,,,,,,,,,,,,,,,677.9875714000082,678.0377778999973,q,0.15313919994514436,677.9875714000082,None,,,8101992752,r,r,m,23,3,001,2022-03-07_22h08.46.789,HW1,2022.1.1,60.10485892365922,
70.bmp,"(-6.06, -3.5)","(10.5, 10.5)",,,,,0,38,38,101,,,,,,,,,,,,,,,,,,,,,,,,,,,,,,,,,678.1702983999858,None,,,,,,,,,,,,,,,,,,,678.670314499992,678.7202315999893,q,0.3606013999087736,678.670314499992,None,,,8101992752,r,r,m,23,3,001,2022-03-07_22h08.46.789,HW1,2022.1.1,60.10485892365922,
30.bmp,"(-6.06, -3.5)","(10.5, 10.5)",,,,,0,39,39,49,,,,,,,,,,,,,,,,,,,,,,,,,,,,,,,,,679.0533534999704,None,,,,,,,,,,,,,,,,,,,679.5523822999094,679.6029829999898,w,0.3228468999732286,679.5523822999094,None,,,8101992752,r,r,m,23,3,001,2022-03-07_22h08.46.789,HW1,2022.1.1,60.10485892365922,
0.bmp,"(4, 0)","(7, 7)",,,,,0,40,40,1,,,,,,,,,,,,,,,,,,,,,,,,,,,,,,,,,679.9024862999795,None,,,,,,,,,,,,,,,,,,,680.4019269999117,680.4520857000025,q,0.6460649999789894,680.4019269999117,None,,,8101992752,r,r,m,23,3,001,2022-03-07_22h08.46.789,HW1,2022.1.1,60.10485892365922,
0.bmp,"(-6.06, -3.5)","(10.5, 10.5)",,,,,0,41,41,10,,,,,,,,,,,,,,,,,,,,,,,,,,,,,,,,,681.0681968999561,None,,,,,,,,,,,,,,,,,,,681.5675729999784,681.6177151999436,w,0.5063813000451773,681.5675729999784,None,,,8101992752,r,r,m,23,3,001,2022-03-07_22h08.46.789,HW1,2022.1.1,60.10485892365922,
50.bmp,"(2, -6.92)","(7, 7)",,,,,0,42,42,71,,,,,,,,,,,,,,,,,,,,,,,,,,,,,,,,,682.100843799999,None,,,,,,,,,,,,,,,,,,,682.5995916000102,682.6498167000245,q,0.5782466999953613,682.5995916000102,None,,,8101992752,r,r,m,23,3,001,2022-03-07_22h08.46.789,HW1,2022.1.1,60.10485892365922,
0.bmp,"(0, 7)","(10.5, 10.5)",,,,,0,43,43,8,,,,,,,,,,,,,,,,,,,,,,,,,,,,,,,,,683.1998389000073,None,,,,,,,,,,,,,,,,,,,683.6992053999566,683.7496631999966,w,0.7099347999319434,683.6992053999566,None,,,8101992752,r,r,m,23,3,001,2022-03-07_22h08.46.789,HW1,2022.1.1,60.10485892365922,
70.bmp,"(-2, 6.92)","(7, 7)",,,,,0,44,44,94,,,,,,,,,,,,,,,,,,,,,,,,,,,,,,,,,684.4317963999929,None,,,,,,,,,,,,,,,,,,,684.931351599982,684.9812271000119,q,0.5811621000757441,684.931351599982,None,,,8101992752,r,r,m,23,3,001,2022-03-07_22h08.46.789,HW1,2022.1.1,60.10485892365922,
80.bmp,"(6.06, -3.5)","(10.5, 10.5)",,,,,0,45,45,116,,,,,,,,,,,,,,,,,,,,,,,,,,,,,,,,,685.5312202000059,None,,,,,,,,,,,,,,,,,,,686.0306302999379,686.0807053999742,w,0.7386443000286818,686.0306302999379,None,,,8101992752,r,r,m,23,3,001,2022-03-07_22h08.46.789,HW1,2022.1.1,60.10485892365922,
0.bmp,"(0, -7)","(10.5, 10.5)",,,,,0,46,46,11,,,,,,,,,,,,,,,,,,,,,,,,,,,,,,,,,686.7964423999656,None,,,,,,,,,,,,,,,,,,,687.2958384000231,687.3455890999176,q,0.5973426999989897,687.2958384000231,None,,,8101992752,r,r,m,23,3,001,2022-03-07_22h08.46.789,HW1,2022.1.1,60.10485892365922,
0.bmp,"(6.06, 3.5)","(10.5, 10.5)",,,,,0,47,47,7,,,,,,,,,,,,,,,,,,,,,,,,,,,,,,,,,687.9123337999918,None,,,,,,,,,,,,,,,,,,,688.4120696999598,688.4617010999937,w,1.451686599990353,688.4120696999598,None,,,8101992752,r,r,m,23,3,001,2022-03-07_22h08.46.789,HW1,2022.1.1,60.10485892365922,
50.bmp,"(6.06, 3.5)","(10.5, 10.5)",,,,,0,48,48,72,,,,,,,,,,,,,,,,,,,,,,,,,,,,,,,,,689.8937308000168,None,,,,,,,,,,,,,,,,,,,690.3937475999119,690.4434437999735,w,0.870737100020051,690.3937475999119,None,,,8101992752,r,r,m,23,3,001,2022-03-07_22h08.46.789,HW1,2022.1.1,60.10485892365922,
60.bmp,"(0, 7)","(10.5, 10.5)",,,,,0,49,49,86,,,,,,,,,,,,,,,,,,,,,,,,,,,,,,,,,691.2927298999857,None,,,,,,,,,,,,,,,,,,,691.7921619999688,691.842074599932,q,1.6805011000251397,691.7921619999688,None,,,8101992752,r,r,m,23,3,001,2022-03-07_22h08.46.789,HW1,2022.1.1,60.10485892365922,
70.bmp,"(6.06, 3.5)","(10.5, 10.5)",,,,,0,50,50,98,,,,,,,,,,,,,,,,,,,,,,,,,,,,,,,,,693.4907411999302,None,,,,,,,,,,,,,,,,,,,693.989843999967,694.0401708999416,w,1.0815186999971047,693.989843999967,None,,,8101992752,r,r,m,23,3,001,2022-03-07_22h08.46.789,HW1,2022.1.1,60.10485892365922,
40.bmp,"(-6.06, -3.5)","(10.5, 10.5)",,,,,0,51,51,62,,,,,,,,,,,,,,,,,,,,,,,,,,,,,,,,,695.0888733000029,None,,,,,,,,,,,,,,,,,,,695.5887617999688,695.6388407999184,q,0.926097400020808,695.5887617999688,None,,,8101992752,r,r,m,23,3,001,2022-03-07_22h08.46.789,HW1,2022.1.1,60.10485892365922,
80.bmp,"(6.06, 3.5)","(10.5, 10.5)",,,,,0,52,52,111,,,,,,,,,,,,,,,,,,,,,,,,,,,,,,,,,696.5380261000246,None,,,,,,,,,,,,,,,,,,,697.0376700999914,697.087374900002,w,1.1873562999535352,697.0376700999914,None,,,8101992752,r,r,m,23,3,001,2022-03-07_22h08.46.789,HW1,2022.1.1,60.10485892365922,
40.bmp,"(6.06, 3.5)","(10.5, 10.5)",,,,,0,53,53,59,,,,,,,,,,,,,,,,,,,,,,,,,,,,,,,,,698.2534562000073,None,,,,,,,,,,,,,,,,,,,698.7528493999271,698.802642100025,w,1.160023899981752,698.7528493999271,None,,,8101992752,r,r,m,23,3,001,2022-03-07_22h08.46.789,HW1,2022.1.1,60.10485892365922,
70.bmp,"(2, -6.92)","(7, 7)",,,,,0,54,54,97,,,,,,,,,,,,,,,,,,,,,,,,,,,,,,,,,699.935250199982,None,,,,,,,,,,,,,,,,,,,700.4346091999905,700.4845023999223,w,0.9933454000856727,700.4346091999905,None,,,8101992752,r,r,m,23,3,001,2022-03-07_22h08.46.789,HW1,2022.1.1,60.10485892365922,
10.bmp,"(-2, -6.92)","(7, 7)",,,,,0,55,55,18,,,,,,,,,,,,,,,,,,,,,,,,,,,,,,,,,701.450346199912,None,,,,,,,,,,,,,,,,,,,701.9493330999976,702.0000084999483,q,0.6680527999997139,701.9493330999976,None,,,8101992752,r,r,m,23,3,001,2022-03-07_22h08.46.789,HW1,2022.1.1,60.10485892365922,
40.bmp,"(4, 0)","(7, 7)",,,,,0,56,56,53,,,,,,,,,,,,,,,,,,,,,,,,,,,,,,,,,702.6492293999763,None,,,,,,,,,,,,,,,,,,,703.1489327999298,703.1989225000143,q,1.04383920005057,703.1489327999298,None,,,8101992752,r,r,m,23,3,001,2022-03-07_22h08.46.789,HW1,2022.1.1,60.10485892365922,
20.bmp,"(2, -6.92)","(7, 7)",,,,,0,57,57,32,,,,,,,,,,,,,,,,,,,,,,,,,,,,,,,,,704.2148723999271,None,,,,,,,,,,,,,,,,,,,704.7142136999173,704.7645179999527,q,1.0697279999731109,704.7142136999173,None,,,8101992752,r,r,m,23,3,001,2022-03-07_22h08.46.789,HW1,2022.1.1,60.10485892365922,
60.bmp,"(-6.06, 3.5)","(10.5, 10.5)",,,,,0,58,58,87,,,,,,,,,,,,,,,,,,,,,,,,,,,,,,,,,705.8132435999578,None,,,,,,,,,,,,,,,,,,,706.3128548000241,706.3631242999109,w,1.2285590999526903,706.3128548000241,None,,,8101992752,r,r,m,23,3,001,2022-03-07_22h08.46.789,HW1,2022.1.1,60.10485892365922,
40.bmp,"(-2, -6.92)","(7, 7)",,,,,0,59,59,57,,,,,,,,,,,,,,,,,,,,,,,,,,,,,,,,,707.5615153999534,None,,,,,,,,,,,,,,,,,,,708.0608767999802,708.1112379999831,q,0.7239230000413954,708.0608767999802,None,,,8101992752,r,r,m,23,3,001,2022-03-07_22h08.46.789,HW1,2022.1.1,60.10485892365922,
20.bmp,"(-6.06, -3.5)","(10.5, 10.5)",,,,,0,60,60,36,,,,,,,,,,,,,,,,,,,,,,,,,,,,,,,,,708.8107394999824,None,,,,,,,,,,,,,,,,,,,709.3102772999555,709.360166199971,q,0.7318127999315038,709.3102772999555,None,,,8101992752,r,r,m,23,3,001,2022-03-07_22h08.46.789,HW1,2022.1.1,60.10485892365922,
50.bmp,"(-6.06, -3.5)","(10.5, 10.5)",,,,,0,61,61,75,,,,,,,,,,,,,,,,,,,,,,,,,,,,,,,,,710.0595584999537,None,,,,,,,,,,,,,,,,,,,710.5592300000135,710.6089441999793,w,0.8802902000024915,710.5592300000135,None,,,8101992752,r,r,m,23,3,001,2022-03-07_22h08.46.789,HW1,2022.1.1,60.10485892365922,
50.bmp,"(0, 7)","(10.5, 10.5)",,,,,0,62,62,73,,,,,,,,,,,,,,,,,,,,,,,,,,,,,,,,,711.458432400017,None,,,,,,,,,,,,,,,,,,,711.9580774999922,712.0074074999429,q,0.6644286999944597,711.9580774999922,None,,,8101992752,r,r,m,23,3,001,2022-03-07_22h08.46.789,HW1,2022.1.1,60.10485892365922,
50.bmp,"(-6.06, 3.5)","(10.5, 10.5)",,,,,0,63,63,74,,,,,,,,,,,,,,,,,,,,,,,,,,,,,,,,,712.6403437999543,None,,,,,,,,,,,,,,,,,,,713.1401713999221,713.1896572000114,w,1.307079300051555,713.1401713999221,None,,,8101992752,r,r,m,23,3,001,2022-03-07_22h08.46.789,HW1,2022.1.1,60.10485892365922,
40.bmp,"(0, 7)","(10.5, 10.5)",,,,,0,64,64,60,,,,,,,,,,,,,,,,,,,,,,,,,,,,,,,,,714.4724459999707,None,,,,,,,,,,,,,,,,,,,714.9719584999839,715.0218993999297,q,1.376383199938573,714.9719584999839,None,,,8101992752,r,r,m,23,3,001,2022-03-07_22h08.46.789,HW1,2022.1.1,60.10485892365922,
80.bmp,"(2, 6.92)","(7, 7)",,,,,0,65,65,106,,,,,,,,,,,,,,,,,,,,,,,,,,,,,,,,,716.3704414999811,None,,,,,,,,,,,,,,,,,,,716.8703861000249,716.920220799977,w,1.0005785999819636,716.8703861000249,None,,,8101992752,r,r,m,23,3,001,2022-03-07_22h08.46.789,HW1,2022.1.1,60.10485892365922,
30.bmp,"(4, 0)","(7, 7)",,,,,0,66,66,40,,,,,,,,,,,,,,,,,,,,,,,,,,,,,,,,,717.9026549999835,None,,,,,,,,,,,,,,,,,,,718.40218799992,718.4522893999238,q,1.6570264999754727,718.40218799992,None,,,8101992752,r,r,m,23,3,001,2022-03-07_22h08.46.789,HW1,2022.1.1,60.10485892365922,
40.bmp,"(-4, 0)","(7, 7)",,,,,0,67,67,56,,,,,,,,,,,,,,,,,,,,,,,,,,,,,,,,,720.0840699999826,None,,,,,,,,,,,,,,,,,,,720.583619199926,720.6336777999531,w,1.41714250005316,720.583619199926,None,,,8101992752,r,r,m,23,3,001,2022-03-07_22h08.46.789,HW1,2022.1.1,60.10485892365922,
80.bmp,"(0, 0)","(4.375, 4.375)",,,,,0,68,68,104,,,,,,,,,,,,,,,,,,,,,,,,,,,,,,,,,722.0324689999688,None,,,,,,,,,,,,,,,,,,,722.5320520999376,722.5819669999182,q,1.864470399916172,722.5320520999376,None,,,8101992752,r,r,m,23,3,001,2022-03-07_22h08.46.789,HW1,2022.1.1,60.10485892365922,
20.bmp,"(0, 0)","(4.375, 4.375)",,,,,0,69,69,26,,,,,,,,,,,,,,,,,,,,,,,,,,,,,,,,,724.4135717999889,None,,,,,,,,,,,,,,,,,,,724.9133755000075,724.9632196999155,w,0.7935946000507101,724.9133755000075,None,,,8101992752,r,r,m,23,3,001,2022-03-07_22h08.46.789,HW1,2022.1.1,60.10485892365922,
10.bmp,"(4, 0)","(7, 7)",,,,,0,70,70,14,,,,,,,,,,,,,,,,,,,,,,,,,,,,,,,,,725.7295098999748,None,,,,,,,,,,,,,,,,,,,726.2288923999295,726.2786524000112,w,2.5500457000453025,726.2288923999295,None,,,8101992752,r,r,m,23,3,001,2022-03-07_22h08.46.789,HW1,2022.1.1,60.10485892365922,
30.bmp,"(6.06, 3.5)","(10.5, 10.5)",,,,,0,71,71,46,,,,,,,,,,,,,,,,,,,,,,,,,,,,,,,,,728.8098250000039,None,,,,,,,,,,,,,,,,,,,729.3093414999312,729.3595575999934,q,1.1847884999588132,729.3093414999312,None,,,8101992752,r,r,m,23,3,001,2022-03-07_22h08.46.789,HW1,2022.1.1,60.10485892365922,
60.bmp,"(-6.06, -3.5)","(10.5, 10.5)",,,,,0,72,72,88,,,,,,,,,,,,,,,,,,,,,,,,,,,,,,,,,730.5256912999321,None,,,,,,,,,,,,,,,,,,,731.0414122999646,731.0911737999413,q,0.9633503999793902,731.0414122999646,None,,,8101992752,r,r,m,23,3,001,2022-03-07_22h08.46.789,HW1,2022.1.1,60.10485892365922,
0.bmp,"(0, 0)","(4.375, 4.375)",,,,,0,73,73,0,,,,,,,,,,,,,,,,,,,,,,,,,,,,,,,,,732.0234829999972,None,,,,,,,,,,,,,,,,,,,732.5228073999751,732.573361699935,w,0.8118256999878213,732.5228073999751,None,,,8101992752,r,r,m,23,3,001,2022-03-07_22h08.46.789,HW1,2022.1.1,60.10485892365922,
70.bmp,"(-6.06, 3.5)","(10.5, 10.5)",,,,,0,74,74,100,,,,,,,,,,,,,,,,,,,,,,,,,,,,,,,,,733.3558148000157,None,,,,,,,,,,,,,,,,,,,733.8553767999401,733.9052886000136,q,0.9852862999541685,733.8553767999401,None,,,8101992752,r,r,m,23,3,001,2022-03-07_22h08.46.789,HW1,2022.1.1,60.10485892365922,
70.bmp,"(2, 6.92)","(7, 7)",,,,,0,75,75,93,,,,,,,,,,,,,,,,,,,,,,,,,,,,,,,,,734.8713960999157,None,,,,,,,,,,,,,,,,,,,735.3709048000164,735.421002499992,q,1.3755088000325486,735.3709048000164,None,,,8101992752,r,r,m,23,3,001,2022-03-07_22h08.46.789,HW1,2022.1.1,60.10485892365922,
10.bmp,"(2, -6.92)","(7, 7)",,,,,0,76,76,19,,,,,,,,,,,,,,,,,,,,,,,,,,,,,,,,,736.769234300009,None,,,,,,,,,,,,,,,,,,,737.2694662999129,737.3193432999542,w,1.2386161999311298,737.2694662999129,None,,,8101992752,r,r,m,23,3,001,2022-03-07_22h08.46.789,HW1,2022.1.1,60.10485892365922,
10.bmp,"(-2, 6.92)","(7, 7)",,,,,0,77,77,16,,,,,,,,,,,,,,,,,,,,,,,,,,,,,,,,,738.5346433999948,None,,,,,,,,,,,,,,,,,,,739.0342379999347,739.0843842999311,q,0.9541930999839678,739.0342379999347,None,,,8101992752,r,r,m,23,3,001,2022-03-07_22h08.46.789,HW1,2022.1.1,60.10485892365922,
10.bmp,"(0, 7)","(10.5, 10.5)",,,,,0,78,78,21,,,,,,,,,,,,,,,,,,,,,,,,,,,,,,,,,740.0167086999863,None,,,,,,,,,,,,,,,,,,,740.5161618000129,740.5663086000131,w,0.7978125000372529,740.5161618000129,None,,,8101992752,r,r,m,23,3,001,2022-03-07_22h08.46.789,HW1,2022.1.1,60.10485892365922,
50.bmp,"(2, 6.92)","(7, 7)",,,,,0,79,79,67,,,,,,,,,,,,,,,,,,,,,,,,,,,,,,,,,741.3320921999402,None,,,,,,,,,,,,,,,,,,,741.8318497999571,741.8816928999731,w,0.7433386000338942,741.8318497999571,None,,,8101992752,r,r,m,23,3,001,2022-03-07_22h08.46.789,HW1,2022.1.1,60.10485892365922,
60.bmp,"(6.06, -3.5)","(10.5, 10.5)",,,,,0,80,80,90,,,,,,,,,,,,,,,,,,,,,,,,,,,,,,,,,742.5977880000137,None,,,,,,,,,,,,,,,,,,,743.0973129000049,743.1473964999896,w,0.9478379000211135,743.0973129000049,None,,,8101992752,r,r,m,23,3,001,2022-03-07_22h08.46.789,HW1,2022.1.1,60.10485892365922,
0.bmp,"(-2, -6.92)","(7, 7)",,,,,0,81,81,5,,,,,,,,,,,,,,,,,,,,,,,,,,,,,,,,,744.0631980999606,None,,,,,,,,,,,,,,,,,,,744.5627273999853,744.6126564999577,q,0.7911784999305382,744.5627273999853,None,,,8101992752,r,r,m,23,3,001,2022-03-07_22h08.46.789,HW1,2022.1.1,60.10485892365922,
20.bmp,"(-4, 0)","(7, 7)",,,,,0,82,82,30,,,,,,,,,,,,,,,,,,,,,,,,,,,,,,,,,745.3788689000066,None,,,,,,,,,,,,,,,,,,,745.8782477999339,745.9282737999456,w,0.8792054000077769,745.8782477999339,None,,,8101992752,r,r,m,23,3,001,2022-03-07_22h08.46.789,HW1,2022.1.1,60.10485892365922,
20.bmp,"(-2, 6.92)","(7, 7)",,,,,0,83,83,29,,,,,,,,,,,,,,,,,,,,,,,,,,,,,,,,,746.7776646999409,None,,,,,,,,,,,,,,,,,,,747.27711549995,747.3269800000126,w,1.0222467998974025,747.27711549995,None,,,8101992752,r,r,m,23,3,001,2022-03-07_22h08.46.789,HW1,2022.1.1,60.10485892365922,
80.bmp,"(-2, 6.92)","(7, 7)",,,,,0,84,84,107,,,,,,,,,,,,,,,,,,,,,,,,,,,,,,,,,748.3261893999297,None,,,,,,,,,,,,,,,,,,,748.8253356999485,748.8757087999256,w,1.6130431999918073,748.8253356999485,None,,,8101992752,r,r,m,23,3,001,2022-03-07_22h08.46.789,HW1,2022.1.1,60.10485892365922,
30.bmp,"(6.06, -3.5)","(10.5, 10.5)",,,,,0,85,85,51,,,,,,,,,,,,,,,,,,,,,,,,,,,,,,,,,750.4578119999496,None,,,,,,,,,,,,,,,,,,,750.9571619000053,751.0073907999322,w,0.9234439000720158,750.9571619000053,None,,,8101992752,r,r,m,23,3,001,2022-03-07_22h08.46.789,HW1,2022.1.1,60.10485892365922,
30.bmp,"(0, -7)","(10.5, 10.5)",,,,,0,86,86,50,,,,,,,,,,,,,,,,,,,,,,,,,,,,,,,,,751.9059785999125,None,,,,,,,,,,,,,,,,,,,752.4057143999962,752.4562703999691,q,0.8896215999266133,752.4057143999962,None,,,8101992752,r,r,m,23,3,001,2022-03-07_22h08.46.789,HW1,2022.1.1,60.10485892365922,
80.bmp,"(0, 7)","(10.5, 10.5)",,,,,0,87,87,112,,,,,,,,,,,,,,,,,,,,,,,,,,,,,,,,,753.3216488999315,None,,,,,,,,,,,,,,,,,,,753.8213221000042,753.8714799999725,w,1.222969499998726,753.8213221000042,None,,,8101992752,r,r,m,23,3,001,2022-03-07_22h08.46.789,HW1,2022.1.1,60.10485892365922,
10.bmp,"(0, -7)","(10.5, 10.5)",,,,,0,88,88,24,,,,,,,,,,,,,,,,,,,,,,,,,,,,,,,,,755.0702534000156,None,,,,,,,,,,,,,,,,,,,755.569685800001,755.6198977999156,q,1.9390093000838533,755.569685800001,None,,,8101992752,r,r,m,23,3,001,2022-03-07_22h08.46.789,HW1,2022.1.1,60.10485892365922,
80.bmp,"(0, -7)","(10.5, 10.5)",,,,,0,89,89,115,,,,,,,,,,,,,,,,,,,,,,,,,,,,,,,,,757.5348186999327,None,,,,,,,,,,,,,,,,,,,758.0346754000057,758.0842388999881,w,3.2634490000782534,758.0346754000057,None,,,8101992752,r,r,m,23,3,001,2022-03-07_22h08.46.789,HW1,2022.1.1,60.10485892365922,
60.bmp,"(-2, 6.92)","(7, 7)",,,,,0,90,90,81,,,,,,,,,,,,,,,,,,,,,,,,,,,,,,,,,761.3144042999484,None,,,,,,,,,,,,,,,,,,,761.8146885000169,761.8645205999492,q,3.3779126000590622,761.8146885000169,None,,,8101992752,r,r,m,23,3,001,2022-03-07_22h08.46.789,HW1,2022.1.1,60.10485892365922,
0.bmp,"(2, 6.92)","(7, 7)",,,,,0,91,91,2,,,,,,,,,,,,,,,,,,,,,,,,,,,,,,,,,765.2116719000041,None,,,,,,,,,,,,,,,,,,,765.7275821999647,765.7773797999835,w,2.1081139999441803,765.7275821999647,None,,,8101992752,r,r,m,23,3,001,2022-03-07_22h08.46.789,HW1,2022.1.1,60.10485892365922,
60.bmp,"(0, -7)","(10.5, 10.5)",,,,,0,92,92,89,,,,,,,,,,,,,,,,,,,,,,,,,,,,,,,,,767.8586231999798,None,,,,,,,,,,,,,,,,,,,768.3585923999781,768.4084030999802,q,1.6021716000977904,768.3585923999781,None,,,8101992752,r,r,m,23,3,001,2022-03-07_22h08.46.789,HW1,2022.1.1,60.10485892365922,
30.bmp,"(-4, 0)","(7, 7)",,,,,0,93,93,43,,,,,,,,,,,,,,,,,,,,,,,,,,,,,,,,,769.9906437000027,None,,,,,,,,,,,,,,,,,,,770.4901284999214,770.5399795999983,w,1.023402199964039,770.4901284999214,None,,,8101992752,r,r,m,23,3,001,2022-03-07_22h08.46.789,HW1,2022.1.1,60.10485892365922,
10.bmp,"(-6.06, -3.5)","(10.5, 10.5)",,,,,0,94,94,23,,,,,,,,,,,,,,,,,,,,,,,,,,,,,,,,,771.5391974999802,None,,,,,,,,,,,,,,,,,,,772.0389256000053,772.0887100999244,q,1.213023699936457,772.0389256000053,None,,,8101992752,r,r,m,23,3,001,2022-03-07_22h08.46.789,HW1,2022.1.1,60.10485892365922,
80.bmp,"(-6.06, -3.5)","(10.5, 10.5)",,,,,0,95,95,114,,,,,,,,,,,,,,,,,,,,,,,,,,,,,,,,,773.2709055999294,None,,,,,,,,,,,,,,,,,,,773.7704217999708,773.8205480999313,q,1.165178900002502,773.7704217999708,None,,,8101992752,r,r,m,23,3,001,2022-03-07_22h08.46.789,HW1,2022.1.1,60.10485892365922,
80.bmp,"(-6.06, 3.5)","(10.5, 10.5)",,,,,0,96,96,113,,,,,,,,,,,,,,,,,,,,,,,,,,,,,,,,,774.9528671000153,None,,,,,,,,,,,,,,,,,,,775.4523149000015,775.5023015999468,w,0.6948627000674605,775.4523149000015,None,,,8101992752,r,r,m,23,3,001,2022-03-07_22h08.46.789,HW1,2022.1.1,60.10485892365922,
80.bmp,"(2, -6.92)","(7, 7)",,,,,0,97,97,110,,,,,,,,,,,,,,,,,,,,,,,,,,,,,,,,,776.1683990999591,None,,,,,,,,,,,,,,,,,,,776.6683701999718,776.7181379999965,q,0.9360529000405222,776.6683701999718,None,,,8101992752,r,r,m,23,3,001,2022-03-07_22h08.46.789,HW1,2022.1.1,60.10485892365922,
50.bmp,"(6.06, -3.5)","(10.5, 10.5)",,,,,0,98,98,77,,,,,,,,,,,,,,,,,,,,,,,,,,,,,,,,,777.6338634999702,None,,,,,,,,,,,,,,,,,,,778.1333036000142,778.1832468999783,w,0.7893708000192419,778.1333036000142,None,,,8101992752,r,r,m,23,3,001,2022-03-07_22h08.46.789,HW1,2022.1.1,60.10485892365922,
10.bmp,"(0, 0)","(4.375, 4.375)",,,,,0,99,99,13,,,,,,,,,,,,,,,,,,,,,,,,,,,,,,,,,778.9496408000123,None,,,,,,,,,,,,,,,,,,,779.4489304999588,779.4989862999646,q,0.826431900030002,779.4489304999588,None,,,8101992752,r,r,m,23,3,001,2022-03-07_22h08.46.789,HW1,2022.1.1,60.10485892365922,
30.bmp,"(0, 7)","(10.5, 10.5)",,,,,0,100,100,47,,,,,,,,,,,,,,,,,,,,,,,,,,,,,,,,,780.2978824999882,None,,,,,,,,,,,,,,,,,,,780.797866399982,780.8477038999554,w,0.7016746000153944,780.797866399982,None,,,8101992752,r,r,m,23,3,001,2022-03-07_22h08.46.789,HW1,2022.1.1,60.10485892365922,
20.bmp,"(6.06, 3.5)","(10.5, 10.5)",,,,,0,101,101,33,,,,,,,,,,,,,,,,,,,,,,,,,,,,,,,,,781.5304822999751,None,,,,,,,,,,,,,,,,,,,782.0302738000173,782.0804263999453,q,0.7852545999921858,782.0302738000173,None,,,8101992752,r,r,m,23,3,001,2022-03-07_22h08.46.789,HW1,2022.1.1,60.10485892365922,
40.bmp,"(0, 0)","(4.375, 4.375)",,,,,0,102,102,52,,,,,,,,,,,,,,,,,,,,,,,,,,,,,,,,,782.8461223000195,None,,,,,,,,,,,,,,,,,,,783.3455028999597,783.3956434999127,w,0.9203409999608994,783.3455028999597,None,,,8101992752,r,r,m,23,3,001,2022-03-07_22h08.46.789,HW1,2022.1.1,60.10485892365922,
50.bmp,"(0, -7)","(10.5, 10.5)",,,,,0,103,103,76,,,,,,,,,,,,,,,,,,,,,,,,,,,,,,,,,784.2950049999636,None,,,,,,,,,,,,,,,,,,,784.794396799989,784.8442003999371,q,0.8038578999694437,784.794396799989,None,,,8101992752,r,r,m,23,3,001,2022-03-07_22h08.46.789,HW1,2022.1.1,60.10485892365922,
60.bmp,"(0, 0)","(4.375, 4.375)",,,,,0,104,104,78,,,,,,,,,,,,,,,,,,,,,,,,,,,,,,,,,785.6272109999554,None,,,,,,,,,,,,,,,,,,,786.1266208000015,786.1765033999691,w,0.7610488999634981,786.1266208000015,None,,,8101992752,r,r,m,23,3,001,2022-03-07_22h08.46.789,HW1,2022.1.1,60.10485892365922,
60.bmp,"(-4, 0)","(7, 7)",,,,,0,105,105,82,,,,,,,,,,,,,,,,,,,,,,,,,,,,,,,,,786.9091086999979,None,,,,,,,,,,,,,,,,,,,787.4086440999527,787.4585996000096,w,0.8995360999833792,787.4086440999527,None,,,8101992752,r,r,m,23,3,001,2022-03-07_22h08.46.789,HW1,2022.1.1,60.10485892365922,
40.bmp,"(0, -7)","(10.5, 10.5)",,,,,0,106,106,63,,,,,,,,,,,,,,,,,,,,,,,,,,,,,,,,,788.3246715000132,None,,,,,,,,,,,,,,,,,,,788.8401605999097,788.8904919999186,w,0.8863070999504998,788.8401605999097,None,,,8101992752,r,r,m,23,3,001,2022-03-07_22h08.46.789,HW1,2022.1.1,60.10485892365922,
40.bmp,"(2, 6.92)","(7, 7)",,,,,0,107,107,54,,,,,,,,,,,,,,,,,,,,,,,,,,,,,,,,,789.756575700012,None,,,,,,,,,,,,,,,,,,,790.2562880999176,790.3058214000193,q,0.7281803999794647,790.2562880999176,None,,,8101992752,r,r,m,23,3,001,2022-03-07_22h08.46.789,HW1,2022.1.1,60.10485892365922,
10.bmp,"(-6.06, 3.5)","(10.5, 10.5)",,,,,0,108,108,22,,,,,,,,,,,,,,,,,,,,,,,,,,,,,,,,,791.0055619999766,None,,,,,,,,,,,,,,,,,,,791.5051264999202,791.5553345999215,w,0.795373999979347,791.5051264999202,None,,,8101992752,r,r,m,23,3,001,2022-03-07_22h08.46.789,HW1,2022.1.1,60.10485892365922,
